Folder: FINAL_PROJECT_GREEN_HYDROGEN/BET/MoS2-NS (amonio)

Note: BET/MoS2-NS (amonio)/000-062.TXT
ASAP 2020 V3.04 E    Unit 1    Serial #: 1151    Page  1  

     Sample:    000-062_MOS2_NS           
   Operator:    Danilo Janes              
  Submitter:    Raphaella                 
       File:    C:\2020\DATA\000-062.SMP  

            Started:    30/10/2024 15:41:08       Analysis Adsorptive:    N2                    
          Completed:    30/10/2024 18:46:46       Analysis Bath Temp.:    -196.359 °C           
        Report Time:    31/10/2024 9:16:56         Thermal Correction:    No                    
        Sample Mass:    0.1981 g                      Warm Free Space:    26.1740 cm³ Measured  
    Cold Free Space:    82.7168 cm³            Equilibration Interval:    5 s                   
  Low Pressure Dose:    None                          Automatic Degas:    Yes                   






 Summary Report


                            Surface Area

  Single point surface area at P/Po = 0.199530301:    41.9645 m²/g  
                                                                    
                                 BET Surface Area:    43.2744 m²/g  
                                                                    
                            Langmuir Surface Area:    59.7150 m²/g  
                                                                    
                            t-Plot Micropore Area:    4.8568 m²/g   
                                                                    
                     t-Plot External Surface Area:    38.4176 m²/g  
                                                                    
  BJH Adsorption cumulative surface area of pores                   
         between 17.000 Å and 3000.000 Å diameter:    49.717 m²/g   
                                                                    
  BJH Desorption cumulative surface area of pores                   
         between 17.000 Å and 3000.000 Å diameter:    57.5457 m²/g  
                                                                    

                               Pore Volume

   Single point adsorption total pore volume of pores                     
  less than 1274.856 Å diameter at P/Po = 0.984579173:    0.109443 cm³/g  
                                                                          
   Single point desorption total pore volume of pores                     
   less than 677.759 Å diameter at P/Po = 0.970603211:    0.108455 cm³/g  
                                                                          
                              t-Plot micropore volume:    0.001846 cm³/g  
                                                                          
            BJH Adsorption cumulative volume of pores                     
             between 17.000 Å and 3000.000 Å diameter:    0.116157 cm³/g  
                                                                          
            BJH Desorption cumulative volume of pores                     
             b

Note: README.md
# ESFERAS OCAS HÃBRIDAS DE CARBONO E DISSULFETO DE MOLIBDÃŠNIO SUPORTADAS POR PAPEL PIROLISADO PARA ATIVIDADE CATALÃTICA EM PRODUÃ‡ÃƒO E ARMAZENAMENTO DE HIDROGÃŠNIO VERDE

![NanocompÃ³sito](IMAGENS/HCS@MoS2.png)

**Projeto Final** do curso de **Bacharelado em CiÃªncia e Tecnologia** na **Ilum - Escola de CiÃªncia**, integrada ao **Centro Nacional de Pesquisa em Energia e Materiais (CNPEM)**.

---

## ğŸ“„ Sobre o Projeto


ğŸ” **Objetivo**

Desenvolver eletrocatalisadores heteroestruturados em arquiteturas esfÃ©ricas ocas para a quebra da molÃ©cula da Ã¡gua, visando a produÃ§Ã£o e armazenamento de hidrogÃªnio verde.

âš—ï¸ **Metodologia**

![METODOLOGIA](IMAGENS/METODOLOGIA.png)

ğŸ”¬ **CaracterizaÃ§Ãµes**

- Microscopia de forÃ§a atÃ´mica (AFM)
- Isotermas de adorsÃ£o e dessorÃ§Ã£o de nitrogÃªnio (BET)
- Espalhamento dinÃ¢mico de luz (DLS)
- DifraÃ§Ã£o de raios X (DRX)
- Ensaio eletroquÃ­mico
- Espectroscopia de infravermelho por transformada de Fourier (FTIR)
- Microscopia eletrÃ´nica de varredura (MEV)
- Raman
- AnÃ¡lise termogravimÃ©trica (TGA)
- Espectroscopia de fotoelÃ©trons excitados por raios X (XPS)

## âš™ï¸ Ferramentas Utilizadas

![Python](https://img.shields.io/badge/Python-3.10-blue?logo=python&logoColor=white)
![Jupyter Notebook](https://img.shields.io/badge/Jupyter-Notebook-orange?logo=jupyter&logoColor=white)
![Pandas](https://img.shields.io/badge/Pandas-Data_Analysis-teal?logo=pandas&logoColor=white)
![NumPy](https://img.shields.io/badge/NumPy-Numerical_Computing-lightblue?logo=numpy&logoColor=white)
![Matplotlib](https://img.shields.io/badge/Matplotlib-Visualization-yellow?logo=plotly&logoColor=white)
![SciPy](https://img.shields.io/badge/SciPy-Scientific_Computing-blue?logo=scipy&logoColor=white)
![glob](https://img.shields.io/badge/glob-File_Management-lightgrey?logo=files&logoColor=white)
![Seaborn](https://img.shields.io/badge/Seaborn-Data_Visualization-teal?logo=seaborn&logoColor=white)
![Scikit-Learn](https://img.shields.io/badge/Scikit--Learn-Machine_Learning-orange?logo=scikit-learn&logoColor=white)

## â­ Resultados

![RESULTADOS](IMAGENS/RESULTADOS.png)

---

## ğŸ“Š Estrutura do RepositÃ³rio

ğŸ“‚ [FINAL_PROJECT_GREEN_HYDROGEN/](https://github.com/raphaella220046/FINAL_PROJECT_GREEN_HYDROGEN/tree/main) <br>
â”œâ”€â”€ ğŸ“ [AFM/](https://github.com/raphaella220046/FINAL_PROJECT_GREEN_HYDROGEN/tree/main/AFM) <br>
â”œâ”€â”€ ğŸ“ [BET/](https://github.com/raphaella220046/FINAL_PROJECT_GREEN_HYDROGEN/tree/main/BET) <br>
â”œâ”€â”€ ğŸ“ [DLS/](https://github.com/raphaella220046/FINAL_PROJECT_GREEN_HYDROGEN/tree/main/DLS) <br>
â”œâ”€â”€ ğŸ“ [DLS_MEV/](https://github.com/raphaella220046/FINAL_PROJECT_GREEN_HYDROGEN/tree/main/DLS_MEV) <br>
â”œâ”€â”€ ğŸ“ [DRX/](https://github.com/raphaella220046/FINAL_PROJECT_GREEN_HYDROGEN/tree/main/DRX) <br>
â”œâ”€â”€ ğŸ“ [ENSAIO ELETROQUÃMICO/](https://github.com/raphaella220046/FINAL_PROJECT_GREEN_HYDROGEN/tree/main/ENSAIO%20ELETROQU%C3%8DMICO) <br>
â”œâ”€â”€ ğŸ“ [FTIR/](https://github.com/r

File: MoS2-NS amonio.txt
Relative Pressure (P/Po)	Absolute Pressure (mmHg)	Quantity Adsorbed (cmÂ³/g STP)

0,064960694	46,19178772	9,562061765
0,07955981	56,57282257	9,925096164
0,11987045	85,23662567	10,70278904
0,139892189	99,47354126	11,03871805
0,159907877	113,7061539	11,38146423
0,199530301	141,8805847	12,04282214
0,298885566	212,5294189	13,74109254
0,350722986	249,3896027	14,6505954
0,449964885	319,9578247	16,5077026
0,549463967	390,7089233	18,90264493
0,73615601	523,4605713	26,74692439
0,839571071	596,9962158	34,77005844
0,905795153	644,0863647	43,11644709
0,940813897	668,9872437	50,28606012
0,964166507	685,5926514	57,75118849
0,977064635	694,7641602	64,60065126
0,984579173	700,1075439	70,75465401
0,9867666	701,6629639	73,6627659
0,970603211	690,1696167	70,11544012
0,955259378	679,2590332	64,01050765
0,933592745	663,852478	56,55389416
0,903793045	642,6627197	49,00714664
0,83909211	596,6556396	39,2473934
0,745568538	530,1535645	31,27381864
0,538646873	383,0171814	21,95900255
0,337712414	240,1381378	14,61095624
0,146734572	104,338974	11,20600568