Folder: FINAL_PROJECT_GREEN_HYDROGEN/BET/MoS2-2_5h BM

Note: README.md
# ESFERAS OCAS HÃBRIDAS DE CARBONO E DISSULFETO DE MOLIBDÃŠNIO SUPORTADAS POR PAPEL PIROLISADO PARA ATIVIDADE CATALÃTICA EM PRODUÃ‡ÃƒO E ARMAZENAMENTO DE HIDROGÃŠNIO VERDE

![NanocompÃ³sito](IMAGENS/HCS@MoS2.png)

**Projeto Final** do curso de **Bacharelado em CiÃªncia e Tecnologia** na **Ilum - Escola de CiÃªncia**, integrada ao **Centro Nacional de Pesquisa em Energia e Materiais (CNPEM)**.

---

## ğŸ“„ Sobre o Projeto


ğŸ” **Objetivo**

Desenvolver eletrocatalisadores heteroestruturados em arquiteturas esfÃ©ricas ocas para a quebra da molÃ©cula da Ã¡gua, visando a produÃ§Ã£o e armazenamento de hidrogÃªnio verde.

âš—ï¸ **Metodologia**

![METODOLOGIA](IMAGENS/METODOLOGIA.png)

ğŸ”¬ **CaracterizaÃ§Ãµes**

- Microscopia de forÃ§a atÃ´mica (AFM)
- Isotermas de adorsÃ£o e dessorÃ§Ã£o de nitrogÃªnio (BET)
- Espalhamento dinÃ¢mico de luz (DLS)
- DifraÃ§Ã£o de raios X (DRX)
- Ensaio eletroquÃ­mico
- Espectroscopia de infravermelho por transformada de Fourier (FTIR)
- Microscopia eletrÃ´nica de varredura (MEV)
- Raman
- AnÃ¡lise termogravimÃ©trica (TGA)
- Espectroscopia de fotoelÃ©trons excitados por raios X (XPS)

## âš™ï¸ Ferramentas Utilizadas

![Python](https://img.shields.io/badge/Python-3.10-blue?logo=python&logoColor=white)
![Jupyter Notebook](https://img.shields.io/badge/Jupyter-Notebook-orange?logo=jupyter&logoColor=white)
![Pandas](https://img.shields.io/badge/Pandas-Data_Analysis-teal?logo=pandas&logoColor=white)
![NumPy](https://img.shields.io/badge/NumPy-Numerical_Computing-lightblue?logo=numpy&logoColor=white)
![Matplotlib](https://img.shields.io/badge/Matplotlib-Visualization-yellow?logo=plotly&logoColor=white)
![SciPy](https://img.shields.io/badge/SciPy-Scientific_Computing-blue?logo=scipy&logoColor=white)
![glob](https://img.shields.io/badge/glob-File_Management-lightgrey?logo=files&logoColor=white)
![Seaborn](https://img.shields.io/badge/Seaborn-Data_Visualization-teal?logo=seaborn&logoColor=white)
![Scikit-Learn](https://img.shields.io/badge/Scikit--Learn-Machine_Learning-orange?logo=scikit-learn&logoColor=white)

## â­ Resultados

![RESULTADOS](IMAGENS/RESULTADOS.png)

---

## ğŸ“Š Estrutura do RepositÃ³rio

ğŸ“‚ [FINAL_PROJECT_GREEN_HYDROGEN/](https://github.com/raphaella220046/FINAL_PROJECT_GREEN_HYDROGEN/tree/main) <br>
â”œâ”€â”€ ğŸ“ [AFM/](https://github.com/raphaella220046/FINAL_PROJECT_GREEN_HYDROGEN/tree/main/AFM) <br>
â”œâ”€â”€ ğŸ“ [BET/](https://github.com/raphaella220046/FINAL_PROJECT_GREEN_HYDROGEN/tree/main/BET) <br>
â”œâ”€â”€ ğŸ“ [DLS/](https://github.com/raphaella220046/FINAL_PROJECT_GREEN_HYDROGEN/tree/main/DLS) <br>
â”œâ”€â”€ ğŸ“ [DLS_MEV/](https://github.com/raphaella220046/FINAL_PROJECT_GREEN_HYDROGEN/tree/main/DLS_MEV) <br>
â”œâ”€â”€ ğŸ“ [DRX/](https://github.com/raphaella220046/FINAL_PROJECT_GREEN_HYDROGEN/tree/main/DRX) <br>
â”œâ”€â”€ ğŸ“ [ENSAIO ELETROQUÃMICO/](https://github.com/raphaella220046/FINAL_PROJECT_GREEN_HYDROGEN/tree/main/ENSAIO%20ELETROQU%C3%8DMICO) <br>
â”œâ”€â”€ ğŸ“ [FTIR/](https://github.com/r

File: MoS2-2_5h BM.txt
Relative Pressure (P/Po)	Absolute Pressure (mmHg)	Quantity Adsorbed (cmÂ³/g STP)

0,061392008	43,82338715	3,949598409
0,079867906	57,0120163	4,080201475
0,120283947	85,8621521	4,288604875
0,139984624	99,92506409	4,364118162
0,159904362	114,1443481	4,449891126
0,199800293	142,6232147	4,630128531
0,299737751	213,9614563	5,143848471
0,350432675	250,1489563	5,437635508
0,450347967	321,4713745	5,961486829
0,550058861	392,6478882	6,506671211
0,733124863	523,3256836	8,647499521
0,838866947	598,8074341	11,7244395
0,90387266	645,2103882	16,18207746
0,940014734	671,0096436	21,31636146
0,963231952	687,5827637	27,87100865
0,977272634	697,6054077	34,96896853
0,984401864	702,694458	41,33001315
0,98717125	704,6713257	44,96131296
0,970507565	692,7763062	41,63435024
0,956430202	682,727478	35,21440624
0,93532664	667,663147	27,19069292
0,901852288	643,7681885	19,73691918
0,843877732	602,3842773	13,76842071
0,728482856	520,012085	9,309100009
0,550664271	393,0800476	6,884614943
0,330642369	236,0220642	5,502672646
0,137645376	98,25524139	4,461516288