Folder: FINAL_PROJECT_GREEN_HYDROGEN/BET/MoS2-NS (sodio)

Note: BET/MoS2-NS (sodio)/000-068.TXT
ASAP 2020 V3.04 E    Unit 1    Serial #: 1151    Page  1  

     Sample:    000-068_MoS2_NS(sodio)    
   Operator:    Danilo Janes              
  Submitter:    Raphaella_Ilum            
       File:    C:\2020\DATA\000-068.SMP  

            Started:    19/11/2024 14:45:27       Analysis Adsorptive:    N2                    
          Completed:    19/11/2024 20:16:23       Analysis Bath Temp.:    -196.369 °C           
        Report Time:    21/11/2024 9:41:12         Thermal Correction:    No                    
        Sample Mass:    0.3787 g                      Warm Free Space:    26.7327 cm³ Measured  
    Cold Free Space:    83.7719 cm³            Equilibration Interval:    5 s                   
  Low Pressure Dose:    None                          Automatic Degas:    Yes                   






 Summary Report


                            Surface Area

  Single point surface area at P/Po = 0.199155893:    103.6835 m²/g  
                                                                     
                                 BET Surface Area:    108.5982 m²/g  
                                                                     
                            Langmuir Surface Area:    150.2437 m²/g  
                                                                     
                     t-Plot External Surface Area:    115.0164 m²/g  
                                                                     
  BJH Adsorption cumulative surface area of pores                    
         between 17.000 Å and 3000.000 Å diameter:    134.182 m²/g   
                                                                     
  BJH Desorption cumulative surface area of pores                    
         between 17.000 Å and 3000.000 Å diameter:    157.9910 m²/g  
                                                                     

                                Pore Volume

   Single point adsorption total pore volume of pores                      
  less than 1084.247 Å diameter at P/Po = 0.981812905:    0.222667 cm³/g   
                                                                           
   Single point desorption total pore volume of pores                      
   less than 744.959 Å diameter at P/Po = 0.973315403:    0.229491 cm³/g   
                                                                           
                              t-Plot micropore volume:    -0.004135 cm³/g  
                                                                           
            BJH Adsorption cumulative volume of pores                      
             between 17.000 Å and 3000.000 Å diameter:    0.239881 cm³/g   
                                                                           
            BJH Desorption cumulative volume of pores                      
             between 17.000 Å and 3000.000 Å diameter:    0.238586 cm³/g   
                                                  

Note: README.md
# ESFERAS OCAS HÃBRIDAS DE CARBONO E DISSULFETO DE MOLIBDÃŠNIO SUPORTADAS POR PAPEL PIROLISADO PARA ATIVIDADE CATALÃTICA EM PRODUÃ‡ÃƒO E ARMAZENAMENTO DE HIDROGÃŠNIO VERDE

![NanocompÃ³sito](IMAGENS/HCS@MoS2.png)

**Projeto Final** do curso de **Bacharelado em CiÃªncia e Tecnologia** na **Ilum - Escola de CiÃªncia**, integrada ao **Centro Nacional de Pesquisa em Energia e Materiais (CNPEM)**.

---

## ğŸ“„ Sobre o Projeto


ğŸ” **Objetivo**

Desenvolver eletrocatalisadores heteroestruturados em arquiteturas esfÃ©ricas ocas para a quebra da molÃ©cula da Ã¡gua, visando a produÃ§Ã£o e armazenamento de hidrogÃªnio verde.

âš—ï¸ **Metodologia**

![METODOLOGIA](IMAGENS/METODOLOGIA.png)

ğŸ”¬ **CaracterizaÃ§Ãµes**

- Microscopia de forÃ§a atÃ´mica (AFM)
- Isotermas de adorsÃ£o e dessorÃ§Ã£o de nitrogÃªnio (BET)
- Espalhamento dinÃ¢mico de luz (DLS)
- DifraÃ§Ã£o de raios X (DRX)
- Ensaio eletroquÃ­mico
- Espectroscopia de infravermelho por transformada de Fourier (FTIR)
- Microscopia eletrÃ´nica de varredura (MEV)
- Raman
- AnÃ¡lise termogravimÃ©trica (TGA)
- Espectroscopia de fotoelÃ©trons excitados por raios X (XPS)

## âš™ï¸ Ferramentas Utilizadas

![Python](https://img.shields.io/badge/Python-3.10-blue?logo=python&logoColor=white)
![Jupyter Notebook](https://img.shields.io/badge/Jupyter-Notebook-orange?logo=jupyter&logoColor=white)
![Pandas](https://img.shields.io/badge/Pandas-Data_Analysis-teal?logo=pandas&logoColor=white)
![NumPy](https://img.shields.io/badge/NumPy-Numerical_Computing-lightblue?logo=numpy&logoColor=white)
![Matplotlib](https://img.shields.io/badge/Matplotlib-Visualization-yellow?logo=plotly&logoColor=white)
![SciPy](https://img.shields.io/badge/SciPy-Scientific_Computing-blue?logo=scipy&logoColor=white)
![glob](https://img.shields.io/badge/glob-File_Management-lightgrey?logo=files&logoColor=white)
![Seaborn](https://img.shields.io/badge/Seaborn-Data_Visualization-teal?logo=seaborn&logoColor=white)
![Scikit-Learn](https://img.shields.io/badge/Scikit--Learn-Machine_Learning-orange?logo=scikit-learn&logoColor=white)

## â­ Resultados

![RESULTADOS](IMAGENS/RESULTADOS.png)

---

## ğŸ“Š Estrutura do RepositÃ³rio

ğŸ“‚ [FINAL_PROJECT_GREEN_HYDROGEN/](https://github.com/raphaella220046/FINAL_PROJECT_GREEN_HYDROGEN/tree/main) <br>
â”œâ”€â”€ ğŸ“ [AFM/](https://github.com/raphaella220046/FINAL_PROJECT_GREEN_HYDROGEN/tree/main/AFM) <br>
â”œâ”€â”€ ğŸ“ [BET/](https://github.com/raphaella220046/FINAL_PROJECT_GREEN_HYDROGEN/tree/main/BET) <br>
â”œâ”€â”€ ğŸ“ [DLS/](https://github.com/raphaella220046/FINAL_PROJECT_GREEN_HYDROGEN/tree/main/DLS) <br>
â”œâ”€â”€ ğŸ“ [DLS_MEV/](https://github.com/raphaella220046/FINAL_PROJECT_GREEN_HYDROGEN/tree/main/DLS_MEV) <br>
â”œâ”€â”€ ğŸ“ [DRX/](https://github.com/raphaella220046/FINAL_PROJECT_GREEN_HYDROGEN/tree/main/DRX) <br>
â”œâ”€â”€ ğŸ“ [ENSAIO ELETROQUÃMICO/](https://github.com/raphaella220046/FINAL_PROJECT_GREEN_HYDROGEN/tree/main/ENSAIO%20ELETROQU%C3%8DMICO) <br>
â”œâ”€â”€ ğŸ“ [FTIR/](https://github.com/r

File: MoS2-NS sodio.txt
Relative Pressure (P/Po)	Absolute Pressure (mmHg)	Quantity Adsorbed (cmÂ³/g STP)

0,058601099	41,63503265	22,30341683
0,077477307	55,04505157	23,51055895
0,119013052	84,55177307	25,79534564
0,139836991	99,34381104	26,85328399
0,159816017	113,5341568	27,84138031
0,199155893	141,4773407	29,74082867
0,294146539	208,9497375	34,3253798
0,351228913	249,4915466	37,24254511
0,449654652	319,3933716	42,79458681
0,548977774	389,9237366	49,37646027
0,74966952	532,4196777	68,4846704
0,83850217	595,4662476	81,48537443
0,902511393	640,8765259	95,4181063
0,939088285	666,7970581	108,8051251
0,962620574	683,4568481	122,7602866
0,9751654	692,3187256	134,4695762

0,981812905	697,0280762	143,9531075
0,985764019	699,8331299	151,0358646
0,973315403	690,9953613	148,3650552
0,963214174	683,8240967	142,815916
0,941631001	668,5013428	128,6785094
0,906866814	643,8208618	111,1583867
0,829922125	589,1947632	90,45463296
0,743542664	527,8705444	78,42064794
0,542654897	385,2523193	61,97842396
0,337938805	239,916214	37,69076884
0,137551568	97,65333557	27,55589279