Folder: FINAL_PROJECT_GREEN_HYDROGEN/BET/MoS2_UP

Note: BET/MoS2_UP/000-066.TXT
ASAP 2020 V3.04 E    Unit 1    Serial #: 1151    Page  1  

     Sample:    000-066_MoS2_UP           
   Operator:    Danilo Janes              
  Submitter:    Raphaella Ilum            
       File:    C:\2020\DATA\000-066.SMP  

            Started:    08/11/2024 10:15:14       Analysis Adsorptive:    N2                    
          Completed:    08/11/2024 12:30:04       Analysis Bath Temp.:    -196.371 °C           
        Report Time:    08/11/2024 12:35:56        Thermal Correction:    No                    
        Sample Mass:    0.1353 g                      Warm Free Space:    26.9649 cm³ Measured  
    Cold Free Space:    84.6974 cm³            Equilibration Interval:    5 s                   
  Low Pressure Dose:    None                          Automatic Degas:    Yes                   






 Summary Report


                           Surface Area

  Single point surface area at P/Po = 0.199793458:    6.6888 m²/g  
                                                                   
                                 BET Surface Area:    6.9477 m²/g  
                                                                   
                            Langmuir Surface Area:    9.6318 m²/g  
                                                                   
                            t-Plot Micropore Area:    0.6959 m²/g  
                                                                   
                     t-Plot External Surface Area:    6.2518 m²/g  
                                                                   
  BJH Adsorption cumulative surface area of pores                  
         between 17.000 Å and 3000.000 Å diameter:    5.425 m²/g   
                                                                   
  BJH Desorption cumulative surface area of pores                  
         between 17.000 Å and 3000.000 Å diameter:    6.2060 m²/g  
                                                                   

                               Pore Volume

   Single point adsorption total pore volume of pores                     
  less than 1270.427 Å diameter at P/Po = 0.984524433:    0.032261 cm³/g  
                                                                          
   Single point desorption total pore volume of pores                     
   less than 637.989 Å diameter at P/Po = 0.968723870:    0.029220 cm³/g  
                                                                          
                              t-Plot micropore volume:    0.000255 cm³/g  
                                                                          
            BJH Adsorption cumulative volume of pores                     
             between 17.000 Å and 3000.000 Å diameter:    0.034768 cm³/g  
                                                                          
            BJH Desorption cumulative volume of pores                     
             between 17.000 Å a

Note: README.md
# ESFERAS OCAS HÃBRIDAS DE CARBONO E DISSULFETO DE MOLIBDÃŠNIO SUPORTADAS POR PAPEL PIROLISADO PARA ATIVIDADE CATALÃTICA EM PRODUÃ‡ÃƒO E ARMAZENAMENTO DE HIDROGÃŠNIO VERDE

![NanocompÃ³sito](IMAGENS/HCS@MoS2.png)

**Projeto Final** do curso de **Bacharelado em CiÃªncia e Tecnologia** na **Ilum - Escola de CiÃªncia**, integrada ao **Centro Nacional de Pesquisa em Energia e Materiais (CNPEM)**.

---

## ğŸ“„ Sobre o Projeto


ğŸ” **Objetivo**

Desenvolver eletrocatalisadores heteroestruturados em arquiteturas esfÃ©ricas ocas para a quebra da molÃ©cula da Ã¡gua, visando a produÃ§Ã£o e armazenamento de hidrogÃªnio verde.

âš—ï¸ **Metodologia**

![METODOLOGIA](IMAGENS/METODOLOGIA.png)

ğŸ”¬ **CaracterizaÃ§Ãµes**

- Microscopia de forÃ§a atÃ´mica (AFM)
- Isotermas de adorsÃ£o e dessorÃ§Ã£o de nitrogÃªnio (BET)
- Espalhamento dinÃ¢mico de luz (DLS)
- DifraÃ§Ã£o de raios X (DRX)
- Ensaio eletroquÃ­mico
- Espectroscopia de infravermelho por transformada de Fourier (FTIR)
- Microscopia eletrÃ´nica de varredura (MEV)
- Raman
- AnÃ¡lise termogravimÃ©trica (TGA)
- Espectroscopia de fotoelÃ©trons excitados por raios X (XPS)

## âš™ï¸ Ferramentas Utilizadas

![Python](https://img.shields.io/badge/Python-3.10-blue?logo=python&logoColor=white)
![Jupyter Notebook](https://img.shields.io/badge/Jupyter-Notebook-orange?logo=jupyter&logoColor=white)
![Pandas](https://img.shields.io/badge/Pandas-Data_Analysis-teal?logo=pandas&logoColor=white)
![NumPy](https://img.shields.io/badge/NumPy-Numerical_Computing-lightblue?logo=numpy&logoColor=white)
![Matplotlib](https://img.shields.io/badge/Matplotlib-Visualization-yellow?logo=plotly&logoColor=white)
![SciPy](https://img.shields.io/badge/SciPy-Scientific_Computing-blue?logo=scipy&logoColor=white)
![glob](https://img.shields.io/badge/glob-File_Management-lightgrey?logo=files&logoColor=white)
![Seaborn](https://img.shields.io/badge/Seaborn-Data_Visualization-teal?logo=seaborn&logoColor=white)
![Scikit-Learn](https://img.shields.io/badge/Scikit--Learn-Machine_Learning-orange?logo=scikit-learn&logoColor=white)

## â­ Resultados

![RESULTADOS](IMAGENS/RESULTADOS.png)

---

## ğŸ“Š Estrutura do RepositÃ³rio

ğŸ“‚ [FINAL_PROJECT_GREEN_HYDROGEN/](https://github.com/raphaella220046/FINAL_PROJECT_GREEN_HYDROGEN/tree/main) <br>
â”œâ”€â”€ ğŸ“ [AFM/](https://github.com/raphaella220046/FINAL_PROJECT_GREEN_HYDROGEN/tree/main/AFM) <br>
â”œâ”€â”€ ğŸ“ [BET/](https://github.com/raphaella220046/FINAL_PROJECT_GREEN_HYDROGEN/tree/main/BET) <br>
â”œâ”€â”€ ğŸ“ [DLS/](https://github.com/raphaella220046/FINAL_PROJECT_GREEN_HYDROGEN/tree/main/DLS) <br>
â”œâ”€â”€ ğŸ“ [DLS_MEV/](https://github.com/raphaella220046/FINAL_PROJECT_GREEN_HYDROGEN/tree/main/DLS_MEV) <br>
â”œâ”€â”€ ğŸ“ [DRX/](https://github.com/raphaella220046/FINAL_PROJECT_GREEN_HYDROGEN/tree/main/DRX) <br>
â”œâ”€â”€ ğŸ“ [ENSAIO ELETROQUÃMICO/](https://github.com/raphaella220046/FINAL_PROJECT_GREEN_HYDROGEN/tree/main/ENSAIO%20ELETROQU%C3%8DMICO) <br>
â”œâ”€â”€ ğŸ“ [FTIR/](https://github.com/r

File: MoS2-UP.txt
Relative Pressure (P/Po)	Absolute Pressure (mmHg)	Quantity Adsorbed (cmÂ³/g STP)

0,067190372	47,71054459	1,524519192
0,079987781	56,79772949	1,577664869
0,119893717	85,13414001	1,742561275
0,139973083	99,39209747	1,78870135
0,159976141	113,595871	1,835454142
0,199793458	141,8693542	1,920161113
0,30021359	213,1756897	2,055641991
0,350361726	248,7848816	2,118542306
0,450137107	319,6333923	2,271121191
0,550088697	390,6070251	2,479124584
0,74053546	525,8394775	3,458847042
0,839722134	596,2699585	4,907172895
0,904650973	642,3746338	7,146968419
0,940036799	667,5014038	9,762002728
0,963684224	684,2929688	13,29818844
0,977066091	693,795166	17,18671678
0,984524433	699,0911865	20,85676266
0,986742768	700,6663818	22,63262996
0,96872387	687,871521	18,89071538
0,950198866	674,7172852	13,97171818
0,924963589	656,7982178	10,0582301
0,906885554	643,9613647	8,347711688
0,84091846	597,1194458	5,479369556
0,721947452	512,6405029	3,646092805
0,548573434	389,5310669	2,744390734
0,329555769	234,0109863	2,272721374
0,141034341	100,1456757	1,953887933