Folder: FINAL_PROJECT_GREEN_HYDROGEN/BET/MoS2-1_20h BM

Note: BET/MoS2-1_20h BM/000-065.TXT
ASAP 2020 V3.04 E    Unit 1    Serial #: 1151    Page  1  

     Sample:    000-065_MoS2-1_20H        
   Operator:    Danilo Janes              
  Submitter:    Raphaella Ilum            
       File:    C:\2020\DATA\000-065.SMP  

            Started:    06/11/2024 17:23:50       Analysis Adsorptive:    N2                    
          Completed:    06/11/2024 21:11:27       Analysis Bath Temp.:    -196.361 °C           
        Report Time:    07/11/2024 10:16:45        Thermal Correction:    No                    
        Sample Mass:    0.2361 g                      Warm Free Space:    26.8336 cm³ Measured  
    Cold Free Space:    86.5869 cm³            Equilibration Interval:    5 s                   
  Low Pressure Dose:    None                          Automatic Degas:    Yes                   






 Summary Report


                            Surface Area

  Single point surface area at P/Po = 0.199989994:    29.3221 m²/g  
                                                                    
                                 BET Surface Area:    29.8680 m²/g  
                                                                    
                            Langmuir Surface Area:    41.0325 m²/g  
                                                                    
                            t-Plot Micropore Area:    5.7488 m²/g   
                                                                    
                     t-Plot External Surface Area:    24.1192 m²/g  
                                                                    
  BJH Adsorption cumulative surface area of pores                   
         between 17.000 Å and 3000.000 Å diameter:    32.286 m²/g   
                                                                    
  BJH Desorption cumulative surface area of pores                   
         between 17.000 Å and 3000.000 Å diameter:    34.4950 m²/g  
                                                                    

                               Pore Volume

   Single point adsorption total pore volume of pores                     
  less than 1130.266 Å diameter at P/Po = 0.982567449:    0.133969 cm³/g  
                                                                          
   Single point desorption total pore volume of pores                     
   less than 724.273 Å diameter at P/Po = 0.972535037:    0.143085 cm³/g  
                                                                          
                              t-Plot micropore volume:    0.002479 cm³/g  
                                                                          
            BJH Adsorption cumulative volume of pores                     
             between 17.000 Å and 3000.000 Å diameter:    0.150919 cm³/g  
                                                                          
            BJH Desorption cumulative volume of pores                     
             b

Note: README.md
# ESFERAS OCAS HÃBRIDAS DE CARBONO E DISSULFETO DE MOLIBDÃŠNIO SUPORTADAS POR PAPEL PIROLISADO PARA ATIVIDADE CATALÃTICA EM PRODUÃ‡ÃƒO E ARMAZENAMENTO DE HIDROGÃŠNIO VERDE

![NanocompÃ³sito](IMAGENS/HCS@MoS2.png)

**Projeto Final** do curso de **Bacharelado em CiÃªncia e Tecnologia** na **Ilum - Escola de CiÃªncia**, integrada ao **Centro Nacional de Pesquisa em Energia e Materiais (CNPEM)**.

---

## ğŸ“„ Sobre o Projeto


ğŸ” **Objetivo**

Desenvolver eletrocatalisadores heteroestruturados em arquiteturas esfÃ©ricas ocas para a quebra da molÃ©cula da Ã¡gua, visando a produÃ§Ã£o e armazenamento de hidrogÃªnio verde.

âš—ï¸ **Metodologia**

![METODOLOGIA](IMAGENS/METODOLOGIA.png)

ğŸ”¬ **CaracterizaÃ§Ãµes**

- Microscopia de forÃ§a atÃ´mica (AFM)
- Isotermas de adorsÃ£o e dessorÃ§Ã£o de nitrogÃªnio (BET)
- Espalhamento dinÃ¢mico de luz (DLS)
- DifraÃ§Ã£o de raios X (DRX)
- Ensaio eletroquÃ­mico
- Espectroscopia de infravermelho por transformada de Fourier (FTIR)
- Microscopia eletrÃ´nica de varredura (MEV)
- Raman
- AnÃ¡lise termogravimÃ©trica (TGA)
- Espectroscopia de fotoelÃ©trons excitados por raios X (XPS)

## âš™ï¸ Ferramentas Utilizadas

![Python](https://img.shields.io/badge/Python-3.10-blue?logo=python&logoColor=white)
![Jupyter Notebook](https://img.shields.io/badge/Jupyter-Notebook-orange?logo=jupyter&logoColor=white)
![Pandas](https://img.shields.io/badge/Pandas-Data_Analysis-teal?logo=pandas&logoColor=white)
![NumPy](https://img.shields.io/badge/NumPy-Numerical_Computing-lightblue?logo=numpy&logoColor=white)
![Matplotlib](https://img.shields.io/badge/Matplotlib-Visualization-yellow?logo=plotly&logoColor=white)
![SciPy](https://img.shields.io/badge/SciPy-Scientific_Computing-blue?logo=scipy&logoColor=white)
![glob](https://img.shields.io/badge/glob-File_Management-lightgrey?logo=files&logoColor=white)
![Seaborn](https://img.shields.io/badge/Seaborn-Data_Visualization-teal?logo=seaborn&logoColor=white)
![Scikit-Learn](https://img.shields.io/badge/Scikit--Learn-Machine_Learning-orange?logo=scikit-learn&logoColor=white)

## â­ Resultados

![RESULTADOS](IMAGENS/RESULTADOS.png)

---

## ğŸ“Š Estrutura do RepositÃ³rio

ğŸ“‚ [FINAL_PROJECT_GREEN_HYDROGEN/](https://github.com/raphaella220046/FINAL_PROJECT_GREEN_HYDROGEN/tree/main) <br>
â”œâ”€â”€ ğŸ“ [AFM/](https://github.com/raphaella220046/FINAL_PROJECT_GREEN_HYDROGEN/tree/main/AFM) <br>
â”œâ”€â”€ ğŸ“ [BET/](https://github.com/raphaella220046/FINAL_PROJECT_GREEN_HYDROGEN/tree/main/BET) <br>
â”œâ”€â”€ ğŸ“ [DLS/](https://github.com/raphaella220046/FINAL_PROJECT_GREEN_HYDROGEN/tree/main/DLS) <br>
â”œâ”€â”€ ğŸ“ [DLS_MEV/](https://github.com/raphaella220046/FINAL_PROJECT_GREEN_HYDROGEN/tree/main/DLS_MEV) <br>
â”œâ”€â”€ ğŸ“ [DRX/](https://github.com/raphaella220046/FINAL_PROJECT_GREEN_HYDROGEN/tree/main/DRX) <br>
â”œâ”€â”€ ğŸ“ [ENSAIO ELETROQUÃMICO/](https://github.com/raphaella220046/FINAL_PROJECT_GREEN_HYDROGEN/tree/main/ENSAIO%20ELETROQU%C3%8DMICO) <br>
â”œâ”€â”€ ğŸ“ [FTIR/](https://github.com/r

File: MoS2-1_20h BM.txt
Relative Pressure (P/Po)	Absolute Pressure (mmHg)	Quantity Adsorbed (cmÂ³/g STP)

0,067232816	47,77626419	6,913159522
0,079644336	56,5971756	7,086492171
0,119959168	85,24674225	7,544269853
0,139802975	99,35042572	7,782015093
0,159949425	113,6685944	7,983689051
0,199989994	142,1264954	8,419583039
0,299247312	212,6698914	9,500707019
0,35058039	249,1565704	10,10521378
0,450403029	320,1068726	11,22978526
0,549429777	390,4944458	12,59685737
0,736129984	523,2034912	17,3392764
0,837448009	595,2397461	23,29514678
0,901919369	641,0910645	31,99627267
0,93831114	666,999939	42,68713973
0,961841472	683,7759399	56,70673108
0,975549868	693,5714111	72,97763771
0,982567449	698,611084	86,61061184
0,98621319	701,2539063	96,88173785
0,972535037	691,5493774	92,50413119
0,962671812	684,5782471	83,25024365
0,939648787	668,2888184	60,5515165
0,895791754	637,1629639	38,26893077
0,834124929	593,3370361	26,19586131
0,734734443	522,6593018	18,59498511
0,534088793	379,940155	12,80732448
0,331911203	236,122345	10,03577201

0,119953648	85,33880615	7,687819845