Folder: FINAL_PROJECT_GREEN_HYDROGEN/BET/Pristine

Note: BET/Pristine/000-063.TXT
ASAP 2020 V3.04 E    Unit 1    Serial #: 1151    Page  1  

     Sample:    000-063_Pristini_3        
   Operator:    Danilo Janes              
  Submitter:    Raphaella Ilum            
       File:    C:\2020\DATA\000-063.SMP  

            Started:    04/11/2024 12:02:33       Analysis Adsorptive:    N2                    
          Completed:    04/11/2024 14:19:03       Analysis Bath Temp.:    -196.333 °C           
        Report Time:    04/11/2024 15:21:19        Thermal Correction:    No                    
        Sample Mass:    0.1463 g                      Warm Free Space:    27.0045 cm³ Measured  
    Cold Free Space:    85.6955 cm³            Equilibration Interval:    5 s                   
  Low Pressure Dose:    None                          Automatic Degas:    Yes                   






 Summary Report


                           Surface Area

  Single point surface area at P/Po = 0.199797486:    5.2826 m²/g  
                                                                   
                                 BET Surface Area:    5.1610 m²/g  
                                                                   
                            Langmuir Surface Area:    6.8710 m²/g  
                                                                   
                            t-Plot Micropore Area:    3.9625 m²/g  
                                                                   
                     t-Plot External Surface Area:    1.1985 m²/g  
                                                                   
  BJH Adsorption cumulative surface area of pores                  
         between 17.000 Å and 3000.000 Å diameter:    3.030 m²/g   
                                                                   
  BJH Desorption cumulative surface area of pores                  
         between 17.000 Å and 3000.000 Å diameter:    3.8699 m²/g  
                                                                   

                               Pore Volume

   Single point adsorption total pore volume of pores                     
  less than 1270.852 Å diameter at P/Po = 0.984529706:    0.022290 cm³/g  
                                                                          
   Single point desorption total pore volume of pores                     
   less than 613.854 Å diameter at P/Po = 0.967462453:    0.020493 cm³/g  
                                                                          
                              t-Plot micropore volume:    0.001840 cm³/g  
                                                                          
            BJH Adsorption cumulative volume of pores                     
             between 17.000 Å and 3000.000 Å diameter:    0.024447 cm³/g  
                                                                          
            BJH Desorption cumulative volume of pores                     
             between 17.000 Å a

Note: README.md
# ESFERAS OCAS HÃBRIDAS DE CARBONO E DISSULFETO DE MOLIBDÃŠNIO SUPORTADAS POR PAPEL PIROLISADO PARA ATIVIDADE CATALÃTICA EM PRODUÃ‡ÃƒO E ARMAZENAMENTO DE HIDROGÃŠNIO VERDE

![NanocompÃ³sito](IMAGENS/HCS@MoS2.png)

**Projeto Final** do curso de **Bacharelado em CiÃªncia e Tecnologia** na **Ilum - Escola de CiÃªncia**, integrada ao **Centro Nacional de Pesquisa em Energia e Materiais (CNPEM)**.

---

## ğŸ“„ Sobre o Projeto


ğŸ” **Objetivo**

Desenvolver eletrocatalisadores heteroestruturados em arquiteturas esfÃ©ricas ocas para a quebra da molÃ©cula da Ã¡gua, visando a produÃ§Ã£o e armazenamento de hidrogÃªnio verde.

âš—ï¸ **Metodologia**

![METODOLOGIA](IMAGENS/METODOLOGIA.png)

ğŸ”¬ **CaracterizaÃ§Ãµes**

- Microscopia de forÃ§a atÃ´mica (AFM)
- Isotermas de adorsÃ£o e dessorÃ§Ã£o de nitrogÃªnio (BET)
- Espalhamento dinÃ¢mico de luz (DLS)
- DifraÃ§Ã£o de raios X (DRX)
- Ensaio eletroquÃ­mico
- Espectroscopia de infravermelho por transformada de Fourier (FTIR)
- Microscopia eletrÃ´nica de varredura (MEV)
- Raman
- AnÃ¡lise termogravimÃ©trica (TGA)
- Espectroscopia de fotoelÃ©trons excitados por raios X (XPS)

## âš™ï¸ Ferramentas Utilizadas

![Python](https://img.shields.io/badge/Python-3.10-blue?logo=python&logoColor=white)
![Jupyter Notebook](https://img.shields.io/badge/Jupyter-Notebook-orange?logo=jupyter&logoColor=white)
![Pandas](https://img.shields.io/badge/Pandas-Data_Analysis-teal?logo=pandas&logoColor=white)
![NumPy](https://img.shields.io/badge/NumPy-Numerical_Computing-lightblue?logo=numpy&logoColor=white)
![Matplotlib](https://img.shields.io/badge/Matplotlib-Visualization-yellow?logo=plotly&logoColor=white)
![SciPy](https://img.shields.io/badge/SciPy-Scientific_Computing-blue?logo=scipy&logoColor=white)
![glob](https://img.shields.io/badge/glob-File_Management-lightgrey?logo=files&logoColor=white)
![Seaborn](https://img.shields.io/badge/Seaborn-Data_Visualization-teal?logo=seaborn&logoColor=white)
![Scikit-Learn](https://img.shields.io/badge/Scikit--Learn-Machine_Learning-orange?logo=scikit-learn&logoColor=white)

## â­ Resultados

![RESULTADOS](IMAGENS/RESULTADOS.png)

---

## ğŸ“Š Estrutura do RepositÃ³rio

ğŸ“‚ [FINAL_PROJECT_GREEN_HYDROGEN/](https://github.com/raphaella220046/FINAL_PROJECT_GREEN_HYDROGEN/tree/main) <br>
â”œâ”€â”€ ğŸ“ [AFM/](https://github.com/raphaella220046/FINAL_PROJECT_GREEN_HYDROGEN/tree/main/AFM) <br>
â”œâ”€â”€ ğŸ“ [BET/](https://github.com/raphaella220046/FINAL_PROJECT_GREEN_HYDROGEN/tree/main/BET) <br>
â”œâ”€â”€ ğŸ“ [DLS/](https://github.com/raphaella220046/FINAL_PROJECT_GREEN_HYDROGEN/tree/main/DLS) <br>
â”œâ”€â”€ ğŸ“ [DLS_MEV/](https://github.com/raphaella220046/FINAL_PROJECT_GREEN_HYDROGEN/tree/main/DLS_MEV) <br>
â”œâ”€â”€ ğŸ“ [DRX/](https://github.com/raphaella220046/FINAL_PROJECT_GREEN_HYDROGEN/tree/main/DRX) <br>
â”œâ”€â”€ ğŸ“ [ENSAIO ELETROQUÃMICO/](https://github.com/raphaella220046/FINAL_PROJECT_GREEN_HYDROGEN/tree/main/ENSAIO%20ELETROQU%C3%8DMICO) <br>
â”œâ”€â”€ ğŸ“ [FTIR/](https://github.com/r

File: Pristine.txt
Relative Pressure (P/Po)	Absolute Pressure (mmHg)	Quantity Adsorbed (cmÂ³/g STP)

0,067213998	47,94326782	1,410796952
0,080002356	57,06511307	1,451956694
0,119959982	85,56660461	1,490068664
0,139959752	99,83229828	1,518360833
0,159944761	114,0874634	1,519978463
0,199797486	142,5141296	1,516493516
0,300212547	214,1394806	1,441781838
0,370774078	264,47052	1,384716371
0,47074181	335,7767944	1,339729894
0,570447404	406,8960876	1,326537263
0,74482901	531,28125	1,658763201
0,839665049	598,927124	2,51473567
0,90469385	645,3117065	4,10912441
0,940114444	670,5769653	6,088772606
0,963867821	687,5200806	8,774268369
0,977062259	696,9315796	11,69276302
0,984529706	702,2580566	14,41070847
0,986478435	703,6480713	15,74787045
0,967462453	690,0841064	13,24869697
0,948879104	676,8287354	9,719474831
0,924258922	659,267334	6,685109803
0,906119843	646,3288574	5,237647368
0,839978228	599,1505127	2,95441283
0,721551135	514,6773071	1,790443622
0,548392598	391,1645508	1,549349809
0,329432488	234,9818573	1,596701613
0,141295845	100,7853241	1,652749849