Folder: FINAL_PROJECT_GREEN_HYDROGEN/FTIR (part 2)

File: MoS2_Pristine_1.txt
##TITLE=No Description
##DATA TYPE=INFRARED SPECTRUM
##XUNITS=1/CM
##YUNITS=%T
399.452  	15.5508
412.384  	13.737
425.316  	13.3049
438.248  	13.4169
451.18  	12.7696
464.112  	9.790154
477.043  	12.9271
489.975  	12.204
502.907  	11.9662
515.839  	11.5687
528.771  	11.5949
541.703  	11.1651
554.635  	10.6843
567.567  	10.2145
580.499  	9.603133
593.431  	9.210300
606.362  	9.360345
619.294  	9.310158
632.226  	9.289389
645.158  	9.631011
658.09  	9.593768
671.022  	9.556675
683.954  	9.679040
696.886  	9.608419
709.818  	9.446305
722.75  	9.122087
735.681  	9.007742
748.613  	8.823598
761.545  	8.714942
774.477  	8.748744
787.409  	8.797664
800.341  	8.894714
813.273  	8.985320
826.205  	9.058435
839.137  	9.194891
852.069  	9.084317
865.001  	9.091368
877.932  	8.946052
890.864  	8.865130
903.796  	8.729804
916.728  	8.666123
929.66  	8.807043
942.592  	8.745238
955.524  	8.683950
968.456  	8.763359
981.388  	8.736022
994.32  	8.773527
1007.25  	8.692274
1020.18  	8.360937
1033.12  	8.129187
1046.05  	8.114451
1058.98  	8.201989
1071.91  	8.361560
1084.84  	8.305890
1097.77  	8.193603
1110.71  	8.168288
1123.64  	8.174310
1136.57  	8.227053
1149.5  	8.369533
1162.43  	8.533040
1175.37  	8.712656
1188.3  	8.872567
1201.23  	9.018436
1214.16  	9.208298
1227.09  	9.389938
1240.03  	9.603208
1252.96  	9.856699
1265.89  	10.0324
1278.82  	10.1661
1291.75  	10.2608
1304.69  	10.3452
1317.62  	10.435
1330.55  	10.5447
1343.48  	10.6188
1356.41  	10.6486
1369.34  	10.6637
1382.28  	10.709
1395.21  	10.7973
1408.14  	10.8999
1421.07  	11.1978
1434  	11.2167
1446.94  	11.2088
1459.87  	11.3255
1472.8  	11.1401
1485.73  	11.1443
1498.66  	11.2292
1511.6  	11.1837
1524.53  	11.1501
1537.46  	10.9344
1550.39  	11.1367
1563.32  	11.0598
1576.26  	11.0309
1589.19  	11.0222
1602.12  	11.0783
1615.05  	10.9339
1627.98  	11.1827
1640.91  	11.2907
1653.85  	11.5816
1666.78  	11.2438
1679.71  	11.3278
1692.64  	11.4208
1705.57  	11.5001
1718.51  	11.7082
1731.44  	11.6337
1744.37  	11.7858
1757.3  	11.8979
1770.23  	11.9235
1783.17  	12.0655
1796.1  	12.1359
1809.03  	12.2516
1821.96  	12.3441
1834.89  	12.4299
1847.83  	12.5224
1860.76  	12.7532
1873.69  	12.8203
1886.62  	12.9065
1899.55  	13.0473
1912.48  	13.2761
1925.42  	13.5685
1938.35  	13.7281
1951.28  	14.1347
1964.21  	15.1001
1977.14  	15.8668
1990.08  	15.2284
2003.01  	15.3634
2015.94  	15.8121
2028.87  	16.1799
2041.8  	15.3955
2054.74  	14.6795
2067.67  	14.3284
2080.6  	14.1154
2093.53  	13.9729
2106.46  	14.1866
2119.39  	14.0195
2132.33  	14.5785
2145.26  	15.0698
2158.19  	17.2105
2171.12  	15.7344
2184.05  	15.4675
2196.99  	15.2934
2209.92  	14.9075
2222.85  	14.6027
2235.78  	14.6272
2248.71  	14.3946
2261.65  	14.3759
2274.58  	14.0686
2287.51  	13.9932
2300.44  	13.8948
2313.37  	13.9172
2326.31  	13.8269
2339.24  	13.9833
2352.17  	13.8153
2365.1  	14.0509
2378.03  	14.0809
2390.96  	14.0665
2403.9  	14.1151
2416.83  	14.1116
2429.76  	14.1933
2442.69  	14.2615
2455.62  	14.2833
2468.56  	14.2501
2481.49  	14.2847
2494.42  	14.3199
2507.35  	14.4151
2520.28  	14.425
2533.22  	14.4077
2546.15  	14.4478
2559.08  	14.479
2572.01  	14.468
2584.94  	14.4998
2597.88  	14.5222
2610.81  	14.5531
2623.74  	14.5753
2636.67  	14.6209
2649.6  	14.6747
2662.53  	14.7256
2675.47  	14.7467
2688.4  	14.7458
2701.33  	14.7528
2714.26  	14.8123
2727.19  	14.7976
2740.13  	14.8023
2753.06  	14.8305
2765.99  	14.8396
2778.92  	14.8481
2791.85  	14.8729
2804.79  	14.8432
2817.72  	14.8275
2830.65  	14.7913
2843.58  	14.7689
2856.51  	14.7753
2869.45  	14.8336
2882.38  	14.8618
2895.31  	14.8456
2908.24  	14.7533
2921.17  	14.7429
2934.1  	14.8762
2947.04  	14.9588
2959.97  	15.0227
2972.9  	15.1264
2985.83  	15.223
2998.76  	15.2808
3011.7  	15.2817
3024.63  	15.3127
3037.56  	15.2917
3050.49  	15.4145
3063.42  	15.4379
3076.36  	15.3861
3089.29  	15.5061
3102.22  	15.523
3115.15  	15.6806
3128.08  	15.6296
3141.02  	15.6753
3153.95  	15.7108
3166.88  	15.8067
3179.81  	15.971
3192.74  	15.9685
3205.67  	16.1663
3218.61  	16.2374
3231.54  	16.4332
3244.47  	16.604
3257.4  	16.6483
3270.33  	16.6236
3283.27  	16.5137
3296.2  	16.4431
3309.13  	16.4147
3322.06  	16.3933
3334.99  	16.3594
3347.93  	16.3857
3360.86  	16.4032
3373.79  	16.5329
3386.72  	16.4839
3399.65  	16.5455
3412.59  	16.6106
3425.52  	16.679
3438.45  	16.662
3451.38  	16.7668
3464.31  	16.8775
3477.24  	17.0446
3490.18  	17.1417
3503.11  	17.2169
3516.04  	17.1673
3528.97  	17.2816
3541.9  	17.267
3554.84  	17.3989
3567.77  	17.355
3580.7  	17.3024
3593.63  	17.281
3606.56  	17.3444
3619.5  	17.3459
3632.43  	17.5531
3645.36  	17.3874
3658.29  	17.7863
3671.22  	17.9467
3684.15  	17.6448
3697.09  	17.6671
3710.02  	17.544
3722.95  	17.7645
3735.88  	17.6307
3748.81  	17.4746
3761.75  	18.1146
3774.68  	17.9379
3787.61  	18.0283
3800.54  	17.7131
3813.47  	17.9487
3826.41  	17.9976
3839.34  	18.1507
3852.27  	17.5207
3865.2  	18.09
3878.13  	18.0706
3891.07  	18.044
3904  	18.2451
3916.93  	18.2427
3929.86  	18.2442
3942.79  	18.3319
3955.72  	18.4119
3968.66  	18.3721
3981.59  	18.4604
3994.52  	18.412
4000.27  	18.4389

File: Silica+PDA_1.txt
##TITLE=No Description
##DATA TYPE=INFRARED SPECTRUM
##XUNITS=1/CM
##YUNITS=%T
399.452  	19.8021
412.384  	18.1332
425.316  	17.844
438.248  	17.2358
451.18  	18.5529
464.112  	21.6058
477.043  	29.8629
489.975  	36.4813
502.907  	37.0716
515.839  	36.0925
528.771  	35.3464
541.703  	35.0095
554.635  	35.4738
567.567  	36.3542
580.499  	36.9359
593.431  	37.7561
606.362  	38.7413
619.294  	39.6565
632.226  	40.1853
645.158  	41.1642
658.09  	42.1104
671.022  	43.2295
683.954  	44.4668
696.886  	45.7107
709.818  	47.1938
722.75  	48.6507
735.681  	50.2522
748.613  	51.8536
761.545  	53.4634
774.477  	54.4936
787.409  	55.7603
800.341  	58.1162
813.273  	61.2919
826.205  	64.6103
839.137  	67.6021
852.069  	69.8557
865.001  	71.5567
877.932  	73.2096
890.864  	74.4356
903.796  	75.1178
916.728  	75.4257
929.66  	75.2092
942.592  	75.0877
955.524  	75.5672
968.456  	77.1666
981.388  	79.7753
994.32  	81.4128
1007.25  	80.2349
1020.18  	76.2665
1033.12  	68.1234
1046.05  	56.8158
1058.98  	45.8399
1071.91  	37.361
1084.84  	31.1703
1097.77  	30.579
1110.71  	46.3203
1123.64  	58.1735
1136.57  	62.1161
1149.5  	64.167
1162.43  	65.811
1175.37  	67.8486
1188.3  	70.1833
1201.23  	72.544
1214.16  	75.1082
1227.09  	78.1504
1240.03  	82.0447
1252.96  	86.2221
1265.89  	88.3899
1278.82  	89.211
1291.75  	89.5943
1304.69  	89.8186
1317.62  	89.9973
1330.55  	90.093
1343.48  	90.1242
1356.41  	90.1197
1369.34  	90.13
1382.28  	90.1601
1395.21  	90.1587
1408.14  	90.1209
1421.07  	90.032
1434  	89.8719
1446.94  	89.7143
1459.87  	89.6116
1472.8  	89.4738
1485.73  	89.2863
1498.66  	88.8799
1511.6  	88.5064
1524.53  	88.2693
1537.46  	87.9027
1550.39  	87.2376
1563.32  	86.4277
1576.26  	85.0645
1589.19  	82.8245
1602.12  	79.8642
1615.05  	75.8838
1627.98  	72.5522
1640.91  	72.2379
1653.85  	74.9683
1666.78  	78.1848
1679.71  	81.9954
1692.64  	85.6175
1705.57  	88.484
1718.51  	90.7383
1731.44  	92.3379
1744.37  	93.3714
1757.3  	94.2256
1770.23  	94.819
1783.17  	95.1694
1796.1  	95.4216
1809.03  	95.6412
1821.96  	95.7687
1834.89  	95.8857
1847.83  	95.8454
1860.76  	95.9291
1873.69  	96.0436
1886.62  	96.0415
1899.55  	96.0785
1912.48  	96.1321
1925.42  	96.097
1938.35  	96.1461
1951.28  	96.2028
1964.21  	96.3043
1977.14  	96.2176
1990.08  	96.0296
2003.01  	96.4178
2015.94  	95.4674
2028.87  	96.0134
2041.8  	95.5807
2054.74  	95.2504
2067.67  	95.1799
2080.6  	95.1338
2093.53  	95.0426
2106.46  	94.8398
2119.39  	94.8717
2132.33  	94.8355
2145.26  	95.4669
2158.19  	95.8664
2171.12  	95.5449
2184.05  	95.6329
2196.99  	95.4652
2209.92  	95.3194
2222.85  	95.7583
2235.78  	95.444
2248.71  	95.9411
2261.65  	95.863
2274.58  	96.0866
2287.51  	95.9747
2300.44  	96.0775
2313.37  	96.0472
2326.31  	96.2572
2339.24  	96.3514
2352.17  	96.5066
2365.1  	96.5646
2378.03  	96.6203
2390.96  	96.7708
2403.9  	96.7974
2416.83  	96.8093
2429.76  	96.9073
2442.69  	96.8851
2455.62  	96.9867
2468.56  	97.0514
2481.49  	97.1545
2494.42  	97.1245
2507.35  	97.266
2520.28  	97.2894
2533.22  	97.2461
2546.15  	97.3494
2559.08  	97.3741
2572.01  	97.3278
2584.94  	97.4175
2597.88  	97.3711
2610.81  	97.3509
2623.74  	97.3537
2636.67  	97.2978
2649.6  	97.1937
2662.53  	97.1169
2675.47  	97.0536
2688.4  	96.9678
2701.33  	96.8373
2714.26  	96.7798
2727.19  	96.6298
2740.13  	96.5364
2753.06  	96.3513
2765.99  	96.2278
2778.92  	96.0245
2791.85  	95.8742
2804.79  	95.6022
2817.72  	95.3567
2830.65  	95.0231
2843.58  	94.7191
2856.51  	94.3365
2869.45  	93.9253
2882.38  	93.5346
2895.31  	92.9982
2908.24  	92.4139
2921.17  	91.6906
2934.1  	91.0466
2947.04  	90.3414
2959.97  	89.4337
2972.9  	88.5249
2985.83  	87.5066
2998.76  	86.3971
3011.7  	85.1103
3024.63  	83.6186
3037.56  	82.089
3050.49  	80.2598
3063.42  	78.4293
3076.36  	76.5304
3089.29  	74.3173
3102.22  	72.0354
3115.15  	69.7201
3128.08  	67.2796
3141.02  	64.7469
3153.95  	62.3773
3166.88  	59.9961
3179.81  	57.8128
3192.74  	55.8118
3205.67  	53.9956
3218.61  	52.8393
3231.54  	51.7847
3244.47  	51.082
3257.4  	50.6739
3270.33  	50.3583
3283.27  	50.239
3296.2  	50.2075
3309.13  	50.0917
3322.06  	50.052
3334.99  	49.9597
3347.93  	49.9989
3360.86  	50.1876
3373.79  	50.7145
3386.72  	51.387
3399.65  	52.4432
3412.59  	53.6597
3425.52  	55.3122
3438.45  	57.1805
3451.38  	58.9429
3464.31  	60.8592
3477.24  	62.8666
3490.18  	64.6521
3503.11  	66.5442
3516.04  	68.7481
3528.97  	70.6622
3541.9  	72.8754
3554.84  	74.807
3567.77  	76.6544
3580.7  	78.8699
3593.63  	80.6849
3606.56  	82.4903
3619.5  	84.275
3632.43  	86.1127
3645.36  	88.2116
3658.29  	90.5639
3671.22  	92.5981
3684.15  	94.599
3697.09  	95.5701
3710.02  	96.229
3722.95  	96.7046
3735.88  	96.8777
3748.81  	97.1626
3761.75  	97.4489
3774.68  	97.7033
3787.61  	97.7985
3800.54  	97.9181
3813.47  	97.8354
3826.41  	97.9173
3839.34  	97.825
3852.27  	98.0773
3865.2  	98.0406
3878.13  	97.9782
3891.07  	97.9988
3904  	97.9584
3916.93  	98.073
3929.86  	98.0478
3942.79  	97.9776
3955.72  	98.0403
3968.66  	97.9959
3981.59  	98.0953
3994.52  	98.0529
4000.27  	98.0943

File: Silica+PDA_Seco_1.txt
##TITLE=No Description
##DATA TYPE=INFRARED SPECTRUM
##XUNITS=1/CM
##YUNITS=%T
399.452  	48.811
412.384  	42.5846
425.316  	36.7278
438.248  	32.15
451.18  	30.7154
464.112  	33.7525
477.043  	45.5582
489.975  	62.9495
502.907  	72.1219
515.839  	76.3889
528.771  	77.7074
541.703  	77.6855
554.635  	77.7179
567.567  	78.2663
580.499  	79.349
593.431  	80.7927
606.362  	81.9337
619.294  	83.0956
632.226  	83.9217
645.158  	84.4991
658.09  	85.1434
671.022  	85.5299
683.954  	85.7757
696.886  	85.8844
709.818  	85.8044
722.75  	85.661
735.681  	85.332
748.613  	84.8944
761.545  	84.2319
774.477  	81.1536
787.409  	75.4736
800.341  	73.8239
813.273  	75.6168
826.205  	79.3401
839.137  	83.9541
852.069  	87.9437
865.001  	89.3546
877.932  	88.8936
890.864  	87.3652
903.796  	84.9071
916.728  	82.3631
929.66  	79.4144
942.592  	76.9007
955.524  	75.9319
968.456  	77.023
981.388  	79.1873
994.32  	76.8751
1007.25  	65.6095
1020.18  	48.6592
1033.12  	35.7926
1046.05  	29.3879
1058.98  	27.0026
1071.91  	27.2882
1084.84  	29.7061
1097.77  	36.1609
1110.71  	49.2365
1123.64  	59.0896
1136.57  	62.7584
1149.5  	65.0019
1162.43  	67.0038
1175.37  	69.3692
1188.3  	71.9042
1201.23  	74.4942
1214.16  	77.4409
1227.09  	80.8043
1240.03  	84.9208
1252.96  	89.7731
1265.89  	93.2202
1278.82  	94.7394
1291.75  	95.4449
1304.69  	95.8985
1317.62  	96.1826
1330.55  	96.42
1343.48  	96.5637
1356.41  	96.6853
1369.34  	96.7494
1382.28  	96.8233
1395.21  	96.8421
1408.14  	96.9584
1421.07  	96.9322
1434  	96.9192
1446.94  	96.9574
1459.87  	96.9621
1472.8  	96.9814
1485.73  	96.9976
1498.66  	97.0405
1511.6  	96.9924
1524.53  	97.0433
1537.46  	97.0912
1550.39  	97.0004
1563.32  	96.9577
1576.26  	96.9333
1589.19  	96.6881
1602.12  	96.3779
1615.05  	95.9091
1627.98  	95.6582
1640.91  	95.906
1653.85  	96.4322
1666.78  	96.8645
1679.71  	97.2676
1692.64  	97.6515
1705.57  	97.8624
1718.51  	98.043
1731.44  	98.2252
1744.37  	98.313
1757.3  	98.4114
1770.23  	98.4797
1783.17  	98.5296
1796.1  	98.4981
1809.03  	98.5976
1821.96  	98.6382
1834.89  	98.6008
1847.83  	98.4963
1860.76  	98.5692
1873.69  	98.5739
1886.62  	98.6324
1899.55  	98.749
1912.48  	98.8539
1925.42  	98.8622
1938.35  	98.9435
1951.28  	99.1549
1964.21  	99.182
1977.14  	98.8453
1990.08  	98.7716
2003.01  	99.1836
2015.94  	99.0305
2028.87  	99.0671
2041.8  	99.5085
2054.74  	99.1255
2067.67  	99.3464
2080.6  	99.0274
2093.53  	99.2728
2106.46  	99.0766
2119.39  	99.128
2132.33  	99.5215
2145.26  	99.6766
2158.19  	99.8471
2171.12  	99.3944
2184.05  	98.9716
2196.99  	98.5559
2209.92  	98.8594
2222.85  	98.6101
2235.78  	98.6377
2248.71  	98.8532
2261.65  	98.5773
2274.58  	98.4796
2287.51  	98.563
2300.44  	98.6421
2313.37  	98.7016
2326.31  	98.9702
2339.24  	99.1185
2352.17  	99.0389
2365.1  	98.7515
2378.03  	98.7113
2390.96  	98.8391
2403.9  	98.9937
2416.83  	98.9517
2429.76  	98.9592
2442.69  	98.8458
2455.62  	98.8372
2468.56  	98.854
2481.49  	98.934
2494.42  	98.8886
2507.35  	98.888
2520.28  	98.8275
2533.22  	98.8786
2546.15  	98.8431
2559.08  	98.7685
2572.01  	98.7552
2584.94  	98.7184
2597.88  	98.7614
2610.81  	98.6938
2623.74  	98.6782
2636.67  	98.5561
2649.6  	98.6127
2662.53  	98.6704
2675.47  	98.7015
2688.4  	98.6865
2701.33  	98.6578
2714.26  	98.6517
2727.19  	98.6251
2740.13  	98.6146
2753.06  	98.615
2765.99  	98.5525
2778.92  	98.5533
2791.85  	98.512
2804.79  	98.4331
2817.72  	98.4672
2830.65  	98.3844
2843.58  	98.4203
2856.51  	98.3504
2869.45  	98.239
2882.38  	98.0921
2895.31  	98.1721
2908.24  	98.0451
2921.17  	98.1062
2934.1  	97.8688
2947.04  	97.8409
2959.97  	97.7027
2972.9  	97.5655
2985.83  	97.4961
2998.76  	97.4464
3011.7  	97.3445
3024.63  	97.2868
3037.56  	97.2323
3050.49  	97.1072
3063.42  	97.0092
3076.36  	96.9823
3089.29  	96.8332
3102.22  	96.6627
3115.15  	96.6377
3128.08  	96.4893
3141.02  	96.3966
3153.95  	96.2981
3166.88  	96.241
3179.81  	96.1631
3192.74  	95.9814
3205.67  	95.9044
3218.61  	95.8019
3231.54  	95.7932
3244.47  	95.6886
3257.4  	95.6047
3270.33  	95.5497
3283.27  	95.5435
3296.2  	95.5886
3309.13  	95.5121
3322.06  	95.455
3334.99  	95.4625
3347.93  	95.4216
3360.86  	95.3383
3373.79  	95.3491
3386.72  	95.4789
3399.65  	95.4914
3412.59  	95.4154
3425.52  	95.4885
3438.45  	95.6245
3451.38  	95.709
3464.31  	95.7738
3477.24  	95.9681
3490.18  	95.9415
3503.11  	96.0607
3516.04  	96.3726
3528.97  	96.5684
3541.9  	96.5787
3554.84  	96.9118
3567.77  	96.7108
3580.7  	97.0938
3593.63  	97.2997
3606.56  	97.2173
3619.5  	97.3249
3632.43  	97.3319
3645.36  	97.5443
3658.29  	97.7855
3671.22  	98.0331
3684.15  	98.4212
3697.09  	98.6072
3710.02  	98.761
3722.95  	98.857
3735.88  	98.8174
3748.81  	98.851
3761.75  	98.7685
3774.68  	98.882
3787.61  	99.0449
3800.54  	99.1738
3813.47  	99.0722
3826.41  	99.0837
3839.34  	98.9821
3852.27  	99.2466
3865.2  	99.1204
3878.13  	99.1534
3891.07  	99.0882
3904  	98.901
3916.93  	98.9862
3929.86  	99.1134
3942.79  	99.0133
3955.72  	99.1031
3968.66  	99.1581
3981.59  	99.1461
3994.52  	99.1419
4000.27  	99.1919

File: Silica_1.txt
##TITLE=No Description
##DATA TYPE=INFRARED SPECTRUM
##XUNITS=1/CM
##YUNITS=%T
399.452  	11.5604
412.384  	9.494949
425.316  	9.462397
438.248  	10.3515
451.18  	13.7282
464.112  	20.6537
477.043  	32.6687
489.975  	42.302
502.907  	45.5398
515.839  	44.296
528.771  	41.9682
541.703  	40.1952
554.635  	40.1331
567.567  	40.548
580.499  	41.3917
593.431  	42.136
606.362  	42.8759
619.294  	43.407
632.226  	43.2356
645.158  	43.4084
658.09  	43.5819
671.022  	43.9706
683.954  	44.3534
696.886  	44.8336
709.818  	45.3747
722.75  	45.8906
735.681  	46.5273
748.613  	47.1578
761.545  	47.373
774.477  	45.6761
787.409  	45.7817
800.341  	48.6578
813.273  	53.0501
826.205  	57.9457
839.137  	62.1096
852.069  	63.7907
865.001  	64.3797
877.932  	64.3923
890.864  	63.6535
903.796  	61.9386
916.728  	59.5496
929.66  	56.2296
942.592  	53.2834
955.524  	52.3818
968.456  	54.1694
981.388  	57.0857
994.32  	53.0651
1007.25  	40.7552
1020.18  	25.8354
1033.12  	15.2534
1046.05  	10.8603
1058.98  	10.2431
1071.91  	11.9726
1084.84  	16.0959
1097.77  	26.189
1110.71  	43.0762
1123.64  	50.2681
1136.57  	52.7184
1149.5  	54.6078
1162.43  	56.5359
1175.37  	59.02
1188.3  	61.7553
1201.23  	64.6155
1214.16  	67.9938
1227.09  	72.3068
1240.03  	78.1069
1252.96  	84.9143
1265.89  	89.0076
1278.82  	90.5743
1291.75  	91.3839
1304.69  	91.8091
1317.62  	91.9838
1330.55  	92.0921
1343.48  	92.1323
1356.41  	92.1275
1369.34  	92.0442
1382.28  	91.8949
1395.21  	91.6112
1408.14  	91.2208
1421.07  	90.4353
1434  	89.658
1446.94  	89.1601
1459.87  	89.0532
1472.8  	89.2725
1485.73  	89.6414
1498.66  	90.1667
1511.6  	90.4593
1524.53  	90.4867
1537.46  	90.2345
1550.39  	89.8229
1563.32  	89.237
1576.26  	88.2691
1589.19  	86.6239
1602.12  	84.021
1615.05  	80.4832
1627.98  	77.7319
1640.91  	77.1957
1653.85  	78.9603
1666.78  	81.4551
1679.71  	84.2742
1692.64  	87.0481
1705.57  	89.2527
1718.51  	90.9623
1731.44  	92.1324
1744.37  	92.9133
1757.3  	93.5951
1770.23  	94.0027
1783.17  	94.2346
1796.1  	94.4349
1809.03  	94.7025
1821.96  	94.765
1834.89  	94.8112
1847.83  	94.8426
1860.76  	94.9409
1873.69  	94.9865
1886.62  	95.1758
1899.55  	95.3536
1912.48  	95.6184
1925.42  	95.9778
1938.35  	95.7699
1951.28  	96.2662
1964.21  	96.1205
1977.14  	96.1163
1990.08  	95.7425
2003.01  	95.4983
2015.94  	95.3409
2028.87  	95.7202
2041.8  	95.1542
2054.74  	95.1718
2067.67  	94.765
2080.6  	94.6455
2093.53  	94.7611
2106.46  	94.816
2119.39  	94.7925
2132.33  	95.1733
2145.26  	95.153
2158.19  	95.5438
2171.12  	94.7136
2184.05  	95.0647
2196.99  	94.6461
2209.92  	94.5452
2222.85  	94.6012
2235.78  	94.6983
2248.71  	94.3327
2261.65  	94.5831
2274.58  	94.7543
2287.51  	94.8536
2300.44  	94.92
2313.37  	94.9615
2326.31  	95.0502
2339.24  	95.0407
2352.17  	95.1743
2365.1  	95.2745
2378.03  	95.4817
2390.96  	95.7483
2403.9  	95.7676
2416.83  	95.8933
2429.76  	96.0681
2442.69  	96.032
2455.62  	96.1567
2468.56  	96.1426
2481.49  	96.0899
2494.42  	96.0698
2507.35  	96.2165
2520.28  	96.0677
2533.22  	96.0485
2546.15  	96.0427
2559.08  	95.9333
2572.01  	95.7201
2584.94  	95.6683
2597.88  	95.5572
2610.81  	95.4118
2623.74  	95.3502
2636.67  	95.2728
2649.6  	95.2508
2662.53  	95.2654
2675.47  	95.209
2688.4  	95.1292
2701.33  	95.1426
2714.26  	94.9768
2727.19  	94.8276
2740.13  	94.6904
2753.06  	94.4865
2765.99  	94.3032
2778.92  	94.036
2791.85  	93.7968
2804.79  	93.5707
2817.72  	93.2924
2830.65  	92.9742
2843.58  	92.6267
2856.51  	92.3151
2869.45  	91.9732
2882.38  	91.5291
2895.31  	91.093
2908.24  	90.668
2921.17  	90.1018
2934.1  	89.5494
2947.04  	88.9126
2959.97  	88.1863
2972.9  	87.4301
2985.83  	86.5428
2998.76  	85.6219
3011.7  	84.5178
3024.63  	83.4645
3037.56  	82.2391
3050.49  	80.985
3063.42  	79.7314
3076.36  	78.2233
3089.29  	76.7499
3102.22  	75.1514
3115.15  	73.4772
3128.08  	71.6383
3141.02  	69.7363
3153.95  	67.791
3166.88  	65.8337
3179.81  	63.9505
3192.74  	62.1386
3205.67  	60.6204
3218.61  	59.3819
3231.54  	58.2193
3244.47  	57.5396
3257.4  	57.0563
3270.33  	56.5935
3283.27  	56.4466
3296.2  	56.1264
3309.13  	55.8598
3322.06  	55.7185
3334.99  	55.4742
3347.93  	55.4441
3360.86  	55.4246
3373.79  	55.7132
3386.72  	56.1183
3399.65  	56.682
3412.59  	57.7944
3425.52  	59.0481
3438.45  	60.2997
3451.38  	62.0559
3464.31  	63.6002
3477.24  	65.1629
3490.18  	66.9809
3503.11  	68.618
3516.04  	70.6038
3528.97  	72.4612
3541.9  	74.4319
3554.84  	76.1549
3567.77  	77.8806
3580.7  	79.7907
3593.63  	81.4062
3606.56  	82.9353
3619.5  	84.6059
3632.43  	86.2805
3645.36  	88.2113
3658.29  	90.2322
3671.22  	92.58
3684.15  	94.43
3697.09  	95.2373
3710.02  	96.0863
3722.95  	96.2823
3735.88  	96.4111
3748.81  	96.8359
3761.75  	97.0836
3774.68  	97.4085
3787.61  	97.5387
3800.54  	97.5266
3813.47  	97.5755
3826.41  	97.7882
3839.34  	97.7076
3852.27  	97.5632
3865.2  	97.6182
3878.13  	97.8217
3891.07  	97.5388
3904  	97.4049
3916.93  	97.6134
3929.86  	97.6593
3942.79  	97.6822
3955.72  	97.7091
3968.66  	97.6878
3981.59  	97.7934
3994.52  	97.7658
4000.27  	97.7654