Folder: FINAL_PROJECT_GREEN_HYDROGEN/FTIR

Note: README.md
# ESFERAS OCAS HÃBRIDAS DE CARBONO E DISSULFETO DE MOLIBDÃŠNIO SUPORTADAS POR PAPEL PIROLISADO PARA ATIVIDADE CATALÃTICA EM PRODUÃ‡ÃƒO E ARMAZENAMENTO DE HIDROGÃŠNIO VERDE

![NanocompÃ³sito](IMAGENS/HCS@MoS2.png)

**Projeto Final** do curso de **Bacharelado em CiÃªncia e Tecnologia** na **Ilum - Escola de CiÃªncia**, integrada ao **Centro Nacional de Pesquisa em Energia e Materiais (CNPEM)**.

---

## ğŸ“„ Sobre o Projeto


ğŸ” **Objetivo**

Desenvolver eletrocatalisadores heteroestruturados em arquiteturas esfÃ©ricas ocas para a quebra da molÃ©cula da Ã¡gua, visando a produÃ§Ã£o e armazenamento de hidrogÃªnio verde.

âš—ï¸ **Metodologia**

![METODOLOGIA](IMAGENS/METODOLOGIA.png)

ğŸ”¬ **CaracterizaÃ§Ãµes**

- Microscopia de forÃ§a atÃ´mica (AFM)
- Isotermas de adorsÃ£o e dessorÃ§Ã£o de nitrogÃªnio (BET)
- Espalhamento dinÃ¢mico de luz (DLS)
- DifraÃ§Ã£o de raios X (DRX)
- Ensaio eletroquÃ­mico
- Espectroscopia de infravermelho por transformada de Fourier (FTIR)
- Microscopia eletrÃ´nica de varredura (MEV)
- Raman
- AnÃ¡lise termogravimÃ©trica (TGA)
- Espectroscopia de fotoelÃ©trons excitados por raios X (XPS)

## âš™ï¸ Ferramentas Utilizadas

![Python](https://img.shields.io/badge/Python-3.10-blue?logo=python&logoColor=white)
![Jupyter Notebook](https://img.shields.io/badge/Jupyter-Notebook-orange?logo=jupyter&logoColor=white)
![Pandas](https://img.shields.io/badge/Pandas-Data_Analysis-teal?logo=pandas&logoColor=white)
![NumPy](https://img.shields.io/badge/NumPy-Numerical_Computing-lightblue?logo=numpy&logoColor=white)
![Matplotlib](https://img.shields.io/badge/Matplotlib-Visualization-yellow?logo=plotly&logoColor=white)
![SciPy](https://img.shields.io/badge/SciPy-Scientific_Computing-blue?logo=scipy&logoColor=white)
![glob](https://img.shields.io/badge/glob-File_Management-lightgrey?logo=files&logoColor=white)
![Seaborn](https://img.shields.io/badge/Seaborn-Data_Visualization-teal?logo=seaborn&logoColor=white)
![Scikit-Learn](https://img.shields.io/badge/Scikit--Learn-Machine_Learning-orange?logo=scikit-learn&logoColor=white)

## â­ Resultados

![RESULTADOS](IMAGENS/RESULTADOS.png)

---

## ğŸ“Š Estrutura do RepositÃ³rio

ğŸ“‚ [FINAL_PROJECT_GREEN_HYDROGEN/](https://github.com/raphaella220046/FINAL_PROJECT_GREEN_HYDROGEN/tree/main) <br>
â”œâ”€â”€ ğŸ“ [AFM/](https://github.com/raphaella220046/FINAL_PROJECT_GREEN_HYDROGEN/tree/main/AFM) <br>
â”œâ”€â”€ ğŸ“ [BET/](https://github.com/raphaella220046/FINAL_PROJECT_GREEN_HYDROGEN/tree/main/BET) <br>
â”œâ”€â”€ ğŸ“ [DLS/](https://github.com/raphaella220046/FINAL_PROJECT_GREEN_HYDROGEN/tree/main/DLS) <br>
â”œâ”€â”€ ğŸ“ [DLS_MEV/](https://github.com/raphaella220046/FINAL_PROJECT_GREEN_HYDROGEN/tree/main/DLS_MEV) <br>
â”œâ”€â”€ ğŸ“ [DRX/](https://github.com/raphaella220046/FINAL_PROJECT_GREEN_HYDROGEN/tree/main/DRX) <br>
â”œâ”€â”€ ğŸ“ [ENSAIO ELETROQUÃMICO/](https://github.com/raphaella220046/FINAL_PROJECT_GREEN_HYDROGEN/tree/main/ENSAIO%20ELETROQU%C3%8DMICO) <br>
â”œâ”€â”€ ğŸ“ [FTIR/](https://github.com/r

File: MoS2_1H_1.txt
##TITLE=No Description
##DATA TYPE=INFRARED SPECTRUM
##XUNITS=1/CM
##YUNITS=%T
399.452  	71.1146
412.384  	66.9489
425.316  	63.7997
438.248  	69.1781
451.18  	71.0827
464.112  	70.7007
477.043  	69.1738
489.975  	65.5111
502.907  	70.732
515.839  	71.8737
528.771  	71.6294
541.703  	71.5957
554.635  	71.0881
567.567  	69.726
580.499  	68.6817
593.431  	68.1344
606.362  	67.9819
619.294  	67.8249
632.226  	67.8429
645.158  	68.4679
658.09  	69.5067
671.022  	70.8467
683.954  	72.5239
696.886  	74.1322
709.818  	75.8144
722.75  	77.4787
735.681  	79.2171
748.613  	80.8881
761.545  	82.3817
774.477  	83.8589
787.409  	84.9646
800.341  	84.4849
813.273  	60.7488
826.205  	85.2633
839.137  	88.8789
852.069  	89.521
865.001  	89.6657
877.932  	89.4523
890.864  	88.6272
903.796  	86.8989
916.728  	82.8949
929.66  	74.7021
942.592  	48.3524
955.524  	45.4522
968.456  	87.1238
981.388  	90.0717
994.32  	91.0931
1007.25  	90.7708
1020.18  	90.0407
1033.12  	89.0841
1046.05  	87.5649
1058.98  	85.4762
1071.91  	81.5031
1084.84  	73.5664
1097.77  	58.6523
1110.71  	53.994
1123.64  	50.7726
1136.57  	62.7186
1149.5  	65.8222
1162.43  	57.769
1175.37  	85.372
1188.3  	88.4697
1201.23  	89.2921
1214.16  	88.8082
1227.09  	88.0671
1240.03  	87.3153
1252.96  	85.8118
1265.89  	83.7965
1278.82  	79.5745
1291.75  	72.9037
1304.69  	69.1428
1317.62  	72.0418
1330.55  	78.1377
1343.48  	75.7161
1356.41  	78.071
1369.34  	65.3525
1382.28  	65.8059
1395.21  	79.0157
1408.14  	76.7698
1421.07  	79.4541
1434  	81.5771
1446.94  	82.1202
1459.87  	76.9531
1472.8  	79.1201
1485.73  	86.1312
1498.66  	88.233
1511.6  	89.205
1524.53  	89.6006
1537.46  	89.781
1550.39  	89.8721
1563.32  	89.9067
1576.26  	89.8487
1589.19  	89.7405
1602.12  	89.6139
1615.05  	89.4505
1627.98  	89.1614
1640.91  	88.9307
1653.85  	88.889
1666.78  	88.7774
1679.71  	88.9152
1692.64  	88.9575
1705.57  	88.6409
1718.51  	88.7021
1731.44  	88.8274
1744.37  	88.6781
1757.3  	88.4468
1770.23  	88.1941
1783.17  	88.7307
1796.1  	88.7648
1809.03  	88.7909
1821.96  	88.7809
1834.89  	88.7097
1847.83  	88.6952
1860.76  	88.5626
1873.69  	88.5197
1886.62  	88.5567
1899.55  	88.4786
1912.48  	88.5009
1925.42  	88.3595
1938.35  	88.4251
1951.28  	88.5654
1964.21  	88.8174
1977.14  	88.3289
1990.08  	88.2394
2003.01  	88.5422
2015.94  	88.1834
2028.87  	88.5764
2041.8  	88.0587
2054.74  	87.9912
2067.67  	87.7384
2080.6  	87.7456
2093.53  	87.703
2106.46  	87.6483
2119.39  	87.6663
2132.33  	88.1719
2145.26  	87.8219
2158.19  	87.8216
2171.12  	87.8813
2184.05  	87.4392
2196.99  	87.502
2209.92  	87.3843
2222.85  	87.5042
2235.78  	87.3909
2248.71  	87.1469
2261.65  	87.0684
2274.58  	86.9232
2287.51  	86.8988
2300.44  	86.8637
2313.37  	86.749
2326.31  	86.8728
2339.24  	86.9523
2352.17  	86.8445
2365.1  	86.6239
2378.03  	86.489
2390.96  	86.4208
2403.9  	86.3074
2416.83  	86.3422
2429.76  	86.426
2442.69  	86.4737
2455.62  	86.403
2468.56  	86.2603
2481.49  	86.0976
2494.42  	85.9976
2507.35  	85.8488
2520.28  	85.7296
2533.22  	85.7018
2546.15  	85.7508
2559.08  	85.6159
2572.01  	85.4027
2584.94  	85.2666
2597.88  	85.2863
2610.81  	85.3224
2623.74  	85.311
2636.67  	85.0629
2649.6  	84.6186
2662.53  	84.4513
2675.47  	85.0309
2688.4  	84.8317
2701.33  	84.4537
2714.26  	84.3162
2727.19  	84.2558
2740.13  	84.3576
2753.06  	84.2446
2765.99  	84.0437
2778.92  	83.7211
2791.85  	83.421
2804.79  	82.9922
2817.72  	82.4532
2830.65  	81.8326
2843.58  	80.7393
2856.51  	78.731
2869.45  	76.3979
2882.38  	74.5348
2895.31  	75.9097
2908.24  	76.5327
2921.17  	75.5848
2934.1  	74.8678
2947.04  	76.9802
2959.97  	67.6355
2972.9  	55.7567
2985.83  	78.735
2998.76  	84.505
3011.7  	85.3537
3024.63  	85.5053
3037.56  	85.3767
3050.49  	85.1796
3063.42  	84.8564
3076.36  	84.5539
3089.29  	84.1205
3102.22  	83.6511
3115.15  	83.0409
3128.08  	82.2878
3141.02  	81.6329
3153.95  	80.6976
3166.88  	79.7509
3179.81  	78.587
3192.74  	77.3582
3205.67  	75.959
3218.61  	74.557
3231.54  	73.0694
3244.47  	71.6644
3257.4  	70.5996
3270.33  	69.6004
3283.27  	68.9238
3296.2  	68.3223
3309.13  	67.8339
3322.06  	67.7577
3334.99  	67.8074
3347.93  	68.1982
3360.86  	69.1344
3373.79  	70.279
3386.72  	71.8732
3399.65  	73.3757
3412.59  	74.9439
3425.52  	76.559
3438.45  	78.0442
3451.38  	79.491
3464.31  	80.7906
3477.24  	82.1641
3490.18  	83.3946
3503.11  	84.2133
3516.04  	85.2301
3528.97  	86.0918
3541.9  	86.6237
3554.84  	87.1284
3567.77  	87.449
3580.7  	87.8467
3593.63  	88.0561
3606.56  	88.3002
3619.5  	88.3656
3632.43  	88.4911
3645.36  	88.5174
3658.29  	88.76
3671.22  	88.7335
3684.15  	88.7292
3697.09  	88.749
3710.02  	88.7628
3722.95  	88.8061
3735.88  	88.6586
3748.81  	88.7273
3761.75  	88.7308
3774.68  	88.7256
3787.61  	88.7448
3800.54  	88.6937
3813.47  	88.7667
3826.41  	88.7304
3839.34  	88.6857
3852.27  	88.7017
3865.2  	88.6488
3878.13  	88.6569
3891.07  	88.8289
3904  	88.6608
3916.93  	88.7911
3929.86  	88.8063
3942.79  	88.7488
3955.72  	88.7708
3968.66  	88.8156
3981.59  	88.7689
3994.52  	88.734
4000.27  	88.7545

File: MoS2_2H_1.txt
##TITLE=No Description
##DATA TYPE=INFRARED SPECTRUM
##XUNITS=1/CM
##YUNITS=%T
399.452  	77.367
412.384  	72.855
425.316  	67.8601
438.248  	72.8735
451.18  	73.1525
464.112  	74.3899
477.043  	72.3697
489.975  	68.6017
502.907  	74.4579
515.839  	75.3464
528.771  	75.5643
541.703  	75.367
554.635  	74.7438
567.567  	73.4969
580.499  	72.5748
593.431  	72.031
606.362  	71.625
619.294  	71.3009
632.226  	71.2617
645.158  	71.8303
658.09  	72.7384
671.022  	73.9685
683.954  	75.597
696.886  	77.1784
709.818  	78.7947
722.75  	80.383
735.681  	82.068
748.613  	83.6608
761.545  	85.1275
774.477  	86.5766
787.409  	87.7758
800.341  	87.8343
813.273  	65.6261
826.205  	87.287
839.137  	91.133
852.069  	91.9535
865.001  	92.3596
877.932  	92.4029
890.864  	91.9826
903.796  	90.824
916.728  	87.5245
929.66  	80.3095
942.592  	53.9811
955.524  	47.6807
968.456  	88.7814
981.388  	91.9438
994.32  	93.1268
1007.25  	93.2774
1020.18  	92.9384
1033.12  	92.4118
1046.05  	91.467
1058.98  	89.7665
1071.91  	86.4578
1084.84  	79.0643
1097.77  	63.9461
1110.71  	58.2233
1123.64  	54.9424
1136.57  	65.8605
1149.5  	69.4997
1162.43  	60.859
1175.37  	87.3946
1188.3  	90.6673
1201.23  	91.6807
1214.16  	91.5124
1227.09  	91.0464
1240.03  	90.5072
1252.96  	89.3332
1265.89  	87.6662
1278.82  	83.8355
1291.75  	77.3312
1304.69  	73.2051
1317.62  	75.6836
1330.55  	81.7613
1343.48  	79.3787
1356.41  	82.3166
1369.34  	69.3475
1382.28  	69.4115
1395.21  	82.2004
1408.14  	80.1513
1421.07  	82.6421
1434  	84.8213
1446.94  	85.6078
1459.87  	80.6091
1472.8  	82.2133
1485.73  	88.9924
1498.66  	91.1406
1511.6  	92.0651
1524.53  	92.6123
1537.46  	92.9505
1550.39  	93.0785
1563.32  	93.1794
1576.26  	93.313
1589.19  	93.2955
1602.12  	93.2026
1615.05  	93.0769
1627.98  	92.9265
1640.91  	92.72
1653.85  	92.5457
1666.78  	92.6879
1679.71  	92.8619
1692.64  	92.8894
1705.57  	92.5929
1718.51  	92.5836
1731.44  	92.8193
1744.37  	92.6577
1757.3  	92.4032
1770.23  	92.2136
1783.17  	92.68
1796.1  	92.7153
1809.03  	92.7873
1821.96  	92.802
1834.89  	92.7679
1847.83  	92.6901
1860.76  	92.7052
1873.69  	92.6836
1886.62  	92.6163
1899.55  	92.5493
1912.48  	92.5764
1925.42  	92.4572
1938.35  	92.3118
1951.28  	92.4753
1964.21  	92.4892
1977.14  	92.33
1990.08  	92.447
2003.01  	92.6494
2015.94  	92.2158
2028.87  	92.6847
2041.8  	92.6122
2054.74  	92.3583
2067.67  	92.3388
2080.6  	92.2036
2093.53  	92.1709
2106.46  	92.1095
2119.39  	92.085
2132.33  	92.2346
2145.26  	92.3345
2158.19  	92.5208
2171.12  	92.6505
2184.05  	92.4179
2196.99  	92.2829
2209.92  	92.3781
2222.85  	92.2777
2235.78  	92.2006
2248.71  	92.1811
2261.65  	92.0741
2274.58  	91.8668
2287.51  	91.6663
2300.44  	91.5174
2313.37  	91.3918
2326.31  	91.4306
2339.24  	91.4678
2352.17  	91.547
2365.1  	91.3348
2378.03  	91.0666
2390.96  	91.1009
2403.9  	90.9829
2416.83  	90.9035
2429.76  	91.0225
2442.69  	91.0645
2455.62  	90.9875
2468.56  	90.9115
2481.49  	90.8427
2494.42  	90.6194
2507.35  	90.4345
2520.28  	90.39
2533.22  	90.3558
2546.15  	90.4548
2559.08  	90.3033
2572.01  	90.0224
2584.94  	89.9707
2597.88  	89.923
2610.81  	89.9364
2623.74  	90.0036
2636.67  	89.8009
2649.6  	89.1741
2662.53  	88.9435
2675.47  	89.4762
2688.4  	89.3409
2701.33  	88.8733
2714.26  	88.7377
2727.19  	88.6729
2740.13  	88.8159
2753.06  	88.7069
2765.99  	88.4683
2778.92  	88.171
2791.85  	87.8605
2804.79  	87.4333
2817.72  	86.9411
2830.65  	86.3092
2843.58  	85.2337
2856.51  	83.2208
2869.45  	80.7118
2882.38  	78.563
2895.31  	79.9483
2908.24  	80.622
2921.17  	79.7343
2934.1  	78.8133
2947.04  	81.1068
2959.97  	71.9272
2972.9  	58.3398
2985.83  	81.6784
2998.76  	87.9468
3011.7  	88.996
3024.63  	89.1397
3037.56  	89.137
3050.49  	88.9445
3063.42  	88.6454
3076.36  	88.3571
3089.29  	87.9472
3102.22  	87.5247
3115.15  	86.9971
3128.08  	86.2728
3141.02  	85.5747
3153.95  	84.6692
3166.88  	83.6103
3179.81  	82.3713
3192.74  	81.0113
3205.67  	79.6572
3218.61  	78.1889
3231.54  	76.6156
3244.47  	75.2396
3257.4  	74.0723
3270.33  	72.9224
3283.27  	72.0647
3296.2  	71.3113
3309.13  	70.895
3322.06  	70.7107
3334.99  	70.7476
3347.93  	71.1449
3360.86  	72.0178
3373.79  	73.1665
3386.72  	74.6653
3399.65  	76.209
3412.59  	77.8486
3425.52  	79.479
3438.45  	80.9903
3451.38  	82.3438
3464.31  	83.6232
3477.24  	85.0979
3490.18  	86.2739
3503.11  	87.3706
3516.04  	88.1915
3528.97  	88.8859
3541.9  	89.6564
3554.84  	90.1636
3567.77  	90.503
3580.7  	90.9571
3593.63  	91.2439
3606.56  	91.552
3619.5  	91.3376
3632.43  	91.5481
3645.36  	91.7313
3658.29  	91.9559
3671.22  	91.7647
3684.15  	91.6866
3697.09  	91.7419
3710.02  	91.9103
3722.95  	91.8752
3735.88  	92.016
3748.81  	91.8289
3761.75  	91.9936
3774.68  	91.9639
3787.61  	91.7887
3800.54  	91.9209
3813.47  	91.6693
3826.41  	91.5369
3839.34  	91.7613
3852.27  	91.9352
3865.2  	91.7949
3878.13  	91.7613
3891.07  	91.7662
3904  	91.7701
3916.93  	91.7881
3929.86  	91.8711
3942.79  	91.7857
3955.72  	91.7609
3968.66  	91.7492
3981.59  	91.72
3994.52  	91.6893
4000.27  	91.7513

File: MoS2_3H_1.txt
##TITLE=No Description
##DATA TYPE=INFRARED SPECTRUM
##XUNITS=1/CM
##YUNITS=%T
399.452  	79.1788
412.384  	71.2937
425.316  	65.6392
438.248  	72.5442
451.18  	73.4046
464.112  	73.2023
477.043  	71.4455
489.975  	68.1803
502.907  	73.6959
515.839  	74.6846
528.771  	74.8967
541.703  	74.9383
554.635  	74.1191
567.567  	73.2523
580.499  	72.4266
593.431  	71.6583
606.362  	71.4391
619.294  	71.2236
632.226  	70.9757
645.158  	71.7121
658.09  	72.7225
671.022  	73.9202
683.954  	75.4318
696.886  	77.0862
709.818  	78.6694
722.75  	80.4331
735.681  	82.0268
748.613  	83.6155
761.545  	85.1688
774.477  	86.6767
787.409  	87.9356
800.341  	88.1793
813.273  	66.1498
826.205  	87.5672
839.137  	91.3603
852.069  	92.3058
865.001  	92.703
877.932  	92.8563
890.864  	92.5179
903.796  	91.4601
916.728  	88.2893
929.66  	81.1531
942.592  	54.448
955.524  	47.8697
968.456  	88.9742
981.388  	92.2048
994.32  	93.4427
1007.25  	93.5486
1020.18  	93.3565
1033.12  	92.9221
1046.05  	92.083
1058.98  	90.4675
1071.91  	87.1698
1084.84  	79.7669
1097.77  	64.3828
1110.71  	58.5219
1123.64  	55.1883
1136.57  	65.9699
1149.5  	69.7755
1162.43  	61.0189
1175.37  	87.6058
1188.3  	90.9531
1201.23  	92.0237
1214.16  	91.8917
1227.09  	91.4335
1240.03  	90.9498
1252.96  	89.8427
1265.89  	88.2211
1278.82  	84.4271
1291.75  	77.8523
1304.69  	73.6859
1317.62  	76.212
1330.55  	82.3207
1343.48  	79.8699
1356.41  	82.9182
1369.34  	69.759
1382.28  	69.6564
1395.21  	82.6407
1408.14  	80.6539
1421.07  	83.2452
1434  	85.435
1446.94  	86.2334
1459.87  	81.1324
1472.8  	82.5974
1485.73  	89.4454
1498.66  	91.6206
1511.6  	92.696
1524.53  	93.2099
1537.46  	93.4931
1550.39  	93.6581
1563.32  	93.8068
1576.26  	93.8792
1589.19  	93.8636
1602.12  	93.799
1615.05  	93.737
1627.98  	93.5232
1640.91  	93.4045
1653.85  	93.3179
1666.78  	93.302
1679.71  	93.3642
1692.64  	93.5362
1705.57  	93.335
1718.51  	93.3563
1731.44  	93.4203
1744.37  	93.3599
1757.3  	93.1444
1770.23  	92.9023
1783.17  	93.4086
1796.1  	93.4972
1809.03  	93.5482
1821.96  	93.55
1834.89  	93.4237
1847.83  	93.448
1860.76  	93.4037
1873.69  	93.3952
1886.62  	93.3105
1899.55  	93.3477
1912.48  	93.394
1925.42  	93.3286
1938.35  	93.1726
1951.28  	93.2612
1964.21  	93.0504
1977.14  	93.4016
1990.08  	93.4614
2003.01  	93.3839
2015.94  	93.5431
2028.87  	93.6363
2041.8  	93.4709
2054.74  	93.2339
2067.67  	93.0053
2080.6  	92.8633
2093.53  	93.0159
2106.46  	92.9833
2119.39  	92.8781
2132.33  	93.033
2145.26  	93.2707
2158.19  	93.7144
2171.12  	93.657
2184.05  	92.9156
2196.99  	93.003
2209.92  	93.0028
2222.85  	92.9123
2235.78  	92.9341
2248.71  	92.8634
2261.65  	92.55
2274.58  	92.3287
2287.51  	92.1401
2300.44  	92.226
2313.37  	92.1036
2326.31  	92.1841
2339.24  	92.1034
2352.17  	92.0742
2365.1  	91.9222
2378.03  	91.7141
2390.96  	91.6488
2403.9  	91.5832
2416.83  	91.5215
2429.76  	91.679
2442.69  	91.7601
2455.62  	91.5656
2468.56  	91.424
2481.49  	91.396
2494.42  	91.2602
2507.35  	91.0313
2520.28  	90.9189
2533.22  	90.9619
2546.15  	91.0239
2559.08  	90.9434
2572.01  	90.6665
2584.94  	90.4911
2597.88  	90.4277
2610.81  	90.4239
2623.74  	90.3609
2636.67  	90.2067
2649.6  	89.6242
2662.53  	89.3294
2675.47  	89.9263
2688.4  	89.7511
2701.33  	89.3845
2714.26  	89.151
2727.19  	89.1171
2740.13  	89.2428
2753.06  	89.1534
2765.99  	88.8528
2778.92  	88.5553
2791.85  	88.2728
2804.79  	87.8397
2817.72  	87.3218
2830.65  	86.6743
2843.58  	85.5371
2856.51  	83.4137
2869.45  	80.9
2882.38  	78.7328
2895.31  	80.0824
2908.24  	80.7398
2921.17  	79.8165
2934.1  	78.9206
2947.04  	81.2801
2959.97  	71.908
2972.9  	58.2838
2985.83  	81.8535
2998.76  	88.1942
3011.7  	89.2458
3024.63  	89.5858
3037.56  	89.4924
3050.49  	89.3216
3063.42  	89.1128
3076.36  	88.7506
3089.29  	88.3628
3102.22  	87.8191
3115.15  	87.3526
3128.08  	86.6652
3141.02  	85.9455
3153.95  	85.0538
3166.88  	84.0461
3179.81  	82.8738
3192.74  	81.4364
3205.67  	80.043
3218.61  	78.6282
3231.54  	77.0728
3244.47  	75.6278
3257.4  	74.3571
3270.33  	73.2617
3283.27  	72.3887
3296.2  	71.6387
3309.13  	71.105
3322.06  	70.9051
3334.99  	70.9004
3347.93  	71.1442
3360.86  	72.0583
3373.79  	73.3289
3386.72  	74.7097
3399.65  	76.2882
3412.59  	77.8908
3425.52  	79.4588
3438.45  	81.0109
3451.38  	82.5761
3464.31  	83.872
3477.24  	85.206
3490.18  	86.3842
3503.11  	87.4655
3516.04  	88.3863
3528.97  	89.0765
3541.9  	89.8158
3554.84  	90.3131
3567.77  	90.6259
3580.7  	91.1102
3593.63  	91.4308
3606.56  	91.4587
3619.5  	91.66
3632.43  	91.7317
3645.36  	91.7526
3658.29  	91.9411
3671.22  	92.008
3684.15  	91.9827
3697.09  	92.0453
3710.02  	92.0101
3722.95  	92.0532
3735.88  	91.9314
3748.81  	91.8876
3761.75  	91.9113
3774.68  	91.8866
3787.61  	91.8329
3800.54  	91.7981
3813.47  	91.8057
3826.41  	91.9082
3839.34  	91.8356
3852.27  	91.655
3865.2  	91.7466
3878.13  	91.7793
3891.07  	91.7365
3904  	91.711
3916.93  	91.7647
3929.86  	91.7331
3942.79  	91.6852
3955.72  	91.7998
3968.66  	91.7011
3981.59  	91.7018
3994.52  	91.6979
4000.27  	91.7767

File: MoS2_4H_1.txt
##TITLE=No Description
##DATA TYPE=INFRARED SPECTRUM
##XUNITS=1/CM
##YUNITS=%T
399.452  	74.7092
412.384  	71.4151
425.316  	64.8736
438.248  	70.7753
451.18  	72.978
464.112  	72.5231
477.043  	71.3148
489.975  	67.3788
502.907  	73.4709
515.839  	74.3313
528.771  	74.7686
541.703  	74.9671
554.635  	74.5831
567.567  	73.6654
580.499  	72.5394
593.431  	72.0848
606.362  	71.7606
619.294  	71.5678
632.226  	71.4189
645.158  	71.9176
658.09  	72.9697
671.022  	74.1986
683.954  	75.6794
696.886  	77.2981
709.818  	79.0046
722.75  	80.6979
735.681  	82.2021
748.613  	83.8341
761.545  	85.3456
774.477  	86.894
787.409  	88.2421
800.341  	88.4884
813.273  	66.9956
826.205  	87.8703
839.137  	91.6299
852.069  	92.5449
865.001  	93.0291
877.932  	93.1676
890.864  	92.9386
903.796  	92.0295
916.728  	89.1437
929.66  	82.3499
942.592  	55.59
955.524  	48.4527
968.456  	89.2041
981.388  	92.4009
994.32  	93.6825
1007.25  	93.905
1020.18  	93.7647
1033.12  	93.3376
1046.05  	92.5323
1058.98  	91.0924
1071.91  	87.94
1084.84  	80.7262
1097.77  	65.3341
1110.71  	59.3886
1123.64  	55.9915
1136.57  	66.5964
1149.5  	70.4719
1162.43  	61.6763
1175.37  	87.9839
1188.3  	91.3692
1201.23  	92.4278
1214.16  	92.3249
1227.09  	91.8873
1240.03  	91.4937
1252.96  	90.4231
1265.89  	88.8522
1278.82  	85.1458
1291.75  	78.6726
1304.69  	74.4697
1317.62  	76.9153
1330.55  	82.9912
1343.48  	80.5577
1356.41  	83.6487
1369.34  	70.5391
1382.28  	70.2424
1395.21  	83.2273
1408.14  	81.2651
1421.07  	83.8251
1434  	86.0295
1446.94  	86.8973
1459.87  	81.8389
1472.8  	83.2288
1485.73  	90.0006
1498.66  	92.1532
1511.6  	93.209
1524.53  	93.7614
1537.46  	94.0588
1550.39  	94.2504
1563.32  	94.4315
1576.26  	94.5249
1589.19  	94.4863
1602.12  	94.4586
1615.05  	94.4222
1627.98  	94.221
1640.91  	94.0115
1653.85  	94.0899
1666.78  	94.0385
1679.71  	94.1743
1692.64  	94.2538
1705.57  	94.0695
1718.51  	94.145
1731.44  	94.2242
1744.37  	94.139
1757.3  	93.9274
1770.23  	93.7365
1783.17  	94.219
1796.1  	94.3214
1809.03  	94.3691
1821.96  	94.3537
1834.89  	94.3209
1847.83  	94.383
1860.76  	94.3191
1873.69  	94.2946
1886.62  	94.291
1899.55  	94.2132
1912.48  	94.3298
1925.42  	94.2711
1938.35  	94.2448
1951.28  	94.4051
1964.21  	94.4535
1977.14  	94.5123
1990.08  	94.3067
2003.01  	94.3579
2015.94  	94.5736
2028.87  	94.7159
2041.8  	94.3255
2054.74  	94.2101
2067.67  	93.9416
2080.6  	93.7828
2093.53  	93.8881
2106.46  	93.9025
2119.39  	93.6781
2132.33  	93.7837
2145.26  	93.894
2158.19  	94.7495
2171.12  	94.1963
2184.05  	93.5655
2196.99  	93.5313
2209.92  	93.8411
2222.85  	93.6184
2235.78  	93.5324
2248.71  	93.4383
2261.65  	93.4753
2274.58  	93.1971
2287.51  	93.1071
2300.44  	92.9733
2313.37  	92.9533
2326.31  	93.0261
2339.24  	93.0488
2352.17  	92.9255
2365.1  	92.8266
2378.03  	92.7007
2390.96  	92.4605
2403.9  	92.2767
2416.83  	92.4065
2429.76  	92.4409
2442.69  	92.4998
2455.62  	92.4872
2468.56  	92.217
2481.49  	92.2117
2494.42  	92.1055
2507.35  	91.8736
2520.28  	91.71
2533.22  	91.7317
2546.15  	91.7154
2559.08  	91.7343
2572.01  	91.3956
2584.94  	91.309
2597.88  	91.3548
2610.81  	91.2867
2623.74  	91.2991
2636.67  	91.1396
2649.6  	90.6062
2662.53  	90.3015
2675.47  	90.8823
2688.4  	90.7202
2701.33  	90.2682
2714.26  	90.0968
2727.19  	90.0603
2740.13  	90.2063
2753.06  	90.0791
2765.99  	89.8517
2778.92  	89.5491
2791.85  	89.2258
2804.79  	88.7653
2817.72  	88.2409
2830.65  	87.6249
2843.58  	86.4991
2856.51  	84.4349
2869.45  	81.8612
2882.38  	79.7196
2895.31  	81.0309
2908.24  	81.6687
2921.17  	80.7372
2934.1  	79.883
2947.04  	82.2452
2959.97  	72.82
2972.9  	58.955
2985.83  	82.6878
2998.76  	89.0424
3011.7  	90.2088
3024.63  	90.4974
3037.56  	90.4975
3050.49  	90.2388
3063.42  	90.0234
3076.36  	89.6807
3089.29  	89.2735
3102.22  	88.7669
3115.15  	88.1738
3128.08  	87.6141
3141.02  	86.7877
3153.95  	85.9078
3166.88  	84.8661
3179.81  	83.7061
3192.74  	82.3572
3205.67  	80.986
3218.61  	79.5009
3231.54  	77.9536
3244.47  	76.5984
3257.4  	75.1884
3270.33  	74.1161
3283.27  	73.2771
3296.2  	72.4458
3309.13  	71.9808
3322.06  	71.7281
3334.99  	71.7275
3347.93  	71.9791
3360.86  	72.7648
3373.79  	73.992
3386.72  	75.4293
3399.65  	76.9363
3412.59  	78.3673
3425.52  	80.1547
3438.45  	81.6887
3451.38  	83.0382
3464.31  	84.5738
3477.24  	85.8187
3490.18  	87.0006
3503.11  	87.9626
3516.04  	89.0805
3528.97  	89.7867
3541.9  	90.4547
3554.84  	91.0196
3567.77  	91.492
3580.7  	91.7731
3593.63  	92.0322
3606.56  	92.2029
3619.5  	92.4039
3632.43  	92.4607
3645.36  	92.5223
3658.29  	92.6292
3671.22  	92.617
3684.15  	92.6994
3697.09  	92.7256
3710.02  	92.6796
3722.95  	92.6482
3735.88  	92.6458
3748.81  	92.6579
3761.75  	92.7948
3774.68  	92.7549
3787.61  	92.613
3800.54  	92.5018
3813.47  	92.5816
3826.41  	92.5259
3839.34  	92.5368
3852.27  	92.5039
3865.2  	92.5829
3878.13  	92.5801
3891.07  	92.5259
3904  	92.5504
3916.93  	92.6231
3929.86  	92.5332
3942.79  	92.5745
3955.72  	92.4891
3968.66  	92.5439
3981.59  	92.4749
3994.52  	92.4498
4000.27  	92.4795