Folder: FINAL_PROJECT_GREEN_HYDROGEN/TGA

Note: README.md
# ESFERAS OCAS HÃBRIDAS DE CARBONO E DISSULFETO DE MOLIBDÃŠNIO SUPORTADAS POR PAPEL PIROLISADO PARA ATIVIDADE CATALÃTICA EM PRODUÃ‡ÃƒO E ARMAZENAMENTO DE HIDROGÃŠNIO VERDE

![NanocompÃ³sito](IMAGENS/HCS@MoS2.png)

**Projeto Final** do curso de **Bacharelado em CiÃªncia e Tecnologia** na **Ilum - Escola de CiÃªncia**, integrada ao **Centro Nacional de Pesquisa em Energia e Materiais (CNPEM)**.

---

## ğŸ“„ Sobre o Projeto


ğŸ” **Objetivo**

Desenvolver eletrocatalisadores heteroestruturados em arquiteturas esfÃ©ricas ocas para a quebra da molÃ©cula da Ã¡gua, visando a produÃ§Ã£o e armazenamento de hidrogÃªnio verde.

âš—ï¸ **Metodologia**

![METODOLOGIA](IMAGENS/METODOLOGIA.png)

ğŸ”¬ **CaracterizaÃ§Ãµes**

- Microscopia de forÃ§a atÃ´mica (AFM)
- Isotermas de adorsÃ£o e dessorÃ§Ã£o de nitrogÃªnio (BET)
- Espalhamento dinÃ¢mico de luz (DLS)
- DifraÃ§Ã£o de raios X (DRX)
- Ensaio eletroquÃ­mico
- Espectroscopia de infravermelho por transformada de Fourier (FTIR)
- Microscopia eletrÃ´nica de varredura (MEV)
- Raman
- AnÃ¡lise termogravimÃ©trica (TGA)
- Espectroscopia de fotoelÃ©trons excitados por raios X (XPS)

## âš™ï¸ Ferramentas Utilizadas

![Python](https://img.shields.io/badge/Python-3.10-blue?logo=python&logoColor=white)
![Jupyter Notebook](https://img.shields.io/badge/Jupyter-Notebook-orange?logo=jupyter&logoColor=white)
![Pandas](https://img.shields.io/badge/Pandas-Data_Analysis-teal?logo=pandas&logoColor=white)
![NumPy](https://img.shields.io/badge/NumPy-Numerical_Computing-lightblue?logo=numpy&logoColor=white)
![Matplotlib](https://img.shields.io/badge/Matplotlib-Visualization-yellow?logo=plotly&logoColor=white)
![SciPy](https://img.shields.io/badge/SciPy-Scientific_Computing-blue?logo=scipy&logoColor=white)
![glob](https://img.shields.io/badge/glob-File_Management-lightgrey?logo=files&logoColor=white)
![Seaborn](https://img.shields.io/badge/Seaborn-Data_Visualization-teal?logo=seaborn&logoColor=white)
![Scikit-Learn](https://img.shields.io/badge/Scikit--Learn-Machine_Learning-orange?logo=scikit-learn&logoColor=white)

## â­ Resultados

![RESULTADOS](IMAGENS/RESULTADOS.png)

---

## ğŸ“Š Estrutura do RepositÃ³rio

ğŸ“‚ [FINAL_PROJECT_GREEN_HYDROGEN/](https://github.com/raphaella220046/FINAL_PROJECT_GREEN_HYDROGEN/tree/main) <br>
â”œâ”€â”€ ğŸ“ [AFM/](https://github.com/raphaella220046/FINAL_PROJECT_GREEN_HYDROGEN/tree/main/AFM) <br>
â”œâ”€â”€ ğŸ“ [BET/](https://github.com/raphaella220046/FINAL_PROJECT_GREEN_HYDROGEN/tree/main/BET) <br>
â”œâ”€â”€ ğŸ“ [DLS/](https://github.com/raphaella220046/FINAL_PROJECT_GREEN_HYDROGEN/tree/main/DLS) <br>
â”œâ”€â”€ ğŸ“ [DLS_MEV/](https://github.com/raphaella220046/FINAL_PROJECT_GREEN_HYDROGEN/tree/main/DLS_MEV) <br>
â”œâ”€â”€ ğŸ“ [DRX/](https://github.com/raphaella220046/FINAL_PROJECT_GREEN_HYDROGEN/tree/main/DRX) <br>
â”œâ”€â”€ ğŸ“ [ENSAIO ELETROQUÃMICO/](https://github.com/raphaella220046/FINAL_PROJECT_GREEN_HYDROGEN/tree/main/ENSAIO%20ELETROQU%C3%8DMICO) <br>
â”œâ”€â”€ ğŸ“ [FTIR/](https://github.com/r

File: HCS@MoS2 (3).csv
#EXPORTTYPE:                 ;DATA ALL
#FILE:                       ;HC9@MOS23.ngb-ds3
#FORMAT:                     ;NETZSCH5
#FTYPE:                      ;ASCII
#IDENTITY:                   ;HC9@MOS23
#DECIMAL:                    ;COMMA
#SEPARATOR:                  ;SEMICOLON
#MTYPE:                      ;TG
#INSTRUMENT:                 ;NETZSCH STA 449F3
#PROJECT:                    ;-
#DATE/TIME:                  ;19/11/2024 09:45:33 (UTC-3)
#CORR. FILE:                 ;Correction.ngb-bs3
#TEMPCAL:                    ;Cal_08_2024_Ar_5C.ngb-ts3
#SENSITIVITY:                ;---
#LABORATORY:                 ;Proc de Nanocerümicas
#OPERATOR:                   ;Danilo Janes
#REMARK:                     ;
#SAMPLE:                     ;HC9@MOS23
#SAMPLE MASS /mg:            ;12,2115
#MATERIAL:                   ;
#REFERENCE:                  ;
#REFERENCE MASS /mg:         ;
#TYPE OF CRUCIBLE:           ;DTA/TG crucible Al2O3
#SAMPLE CRUCIBLE MASS /mg:   ;0
#REFERENCE CRUCIBLE MASS /mg:;
#TG RANGE /mg:               ;35000
#TAU-R:                      ;---
#CORR. CODE:                 ;020
#EXO:                        ;-1
#RANGE:                      ;20oC/10,0(K/min)/1000oC
#SEGMENT:                    ;S1/1
#SEG. 1:                     ;20oC/10,0(K/min)/1000oC

##Temp./oC;Time/min;Mass/%;Gas Flow(purge1)/(ml/min);Gas Flow(protective)/(ml/min)
 25,20800; 0,00000;100,00000;20,00000;20,00000
 25,27029; 0,50503; 99,96418;20,00000;20,00000
 26,79434; 1,01007; 99,92555;20,00000;20,00000
 29,90869; 1,51510; 99,85047;20,00000;20,00000
 34,27231; 2,02013; 99,80751;20,00000;20,00000
 39,59097; 2,52516; 99,73038;20,00000;20,00000
 45,54418; 3,03020; 99,61096;20,00000;20,00000
 51,77074; 3,53523; 99,40391;20,00000;20,00000
 57,96628; 4,04026; 99,13343;20,00000;20,00000
 63,98874; 4,54530; 98,74407;20,00000;20,00000
 69,76238; 5,05033; 98,31751;20,00000;20,00000
 75,24314; 5,55536; 97,83712;20,00000;20,00000
 80,45146; 6,06040; 97,30702;20,00000;20,00000
 85,52491; 6,56543; 96,80489;20,00000;20,00000
 90,50964; 7,07046; 96,29836;20,00000;20,00000
 95,47840; 7,57549; 95,83852;20,00000;20,00000
100,44292; 8,08053; 95,35559;20,00000;20,00000
105,43666; 8,58556; 95,00550;20,00000;20,00000
110,42307; 9,09059; 94,66955;20,00000;20,00000
115,45442; 9,59563; 94,36511;20,00000;20,00000
120,45946;10,10066; 94,12914;20,00000;20,00000
125,49420;10,60569; 93,95564;20,00000;20,00000
130,57694;11,11073; 93,83285;20,00000;20,00000
135,68439;11,61576; 93,72065;20,00000;20,00000
140,78611;12,12079; 93,61820;20,00000;20,00000
145,88823;12,62583; 93,54071;20,00000;20,00000
150,96625;13,13086; 93,44864;20,00000;20,00000
156,04214;13,63589; 93,38996;20,00000;20,00000
161,07711;14,14092; 93,34458;20,00000;20,00000
166,11845;14,64596; 93,29272;20,00000;20,00000
171,15910;15,15099; 93,26864;20,00000;20,00000
176,19125;15,65602; 93,23333;20,00000;20,00000
181,23796;16,16106; 93,17684;20,00000;20,00000
186,30418;16,66609; 93,14819;20,00000;20,00000
191,39496;17,17112; 93,13347;20,00000;20,00000
196,48040;17,67616; 93,05694;20,00000;20,00000
201,56600;18,18119; 93,03604;20,00000;20,00000
206,61730;18,68622; 92,97271;20,00000;20,00000
211,69540;19,19125; 92,90818;20,00000;20,00000
216,73577;19,69629; 92,82209;20,00000;20,00000
221,78515;20,20132; 92,75091;20,00000;20,00000
226,84719;20,70635; 92,66185;20,00000;20,00000
231,89655;21,21139; 92,52332;20,00000;20,00000
236,94258;21,71642; 92,39282;20,00000;20,00000
242,00774;22,22145; 92,22065;20,00000;20,00000
247,05594;22,72648; 92,04643;20,00000;20,00000
252,10497;23,23152; 91,85511;20,00000;20,00000
257,15585;23,73655; 91,61427;20,00000;20,00000
262,20276;24,24158; 91,33498;20,00000;20,00000
267,23108;24,74662; 91,05180;20,00000;20,00000
272,28599;25,25165; 90,73660;20,00000;20,00000
277,34813;25,75668; 90,40827;20,00000;20,00000
282,41028;26,26172; 90,04373;20,00000;20,00000
287,46415;26,76675; 89,65801;20,00000;20,00000
292,51279;27,27178; 89,25050;20,00000;20,00000
297,54366;27,77681; 88,86560;20,00000;20,00000
302,53087;28,28185; 88,45577;20,00000;20,00000
307,54578;28,78688; 88,01773;20,00000;20,00000
312,60083;29,29191; 87,58125;20,00000;20,00000
317,68101;29,79695; 87,11117;20,00000;20,00000
322,79118;30,30198; 86,62380;20,00000;20,00000
327,87484;30,80701; 86,13029;20,00000;20,00000
332,90824;31,31205; 85,59447;20,00000;20,00000
337,92194;31,81708; 85,06518;20,00000;20,00000
342,97790;32,32211; 84,48005;20,00000;20,00000
348,02746;32,82714; 83,85828;20,00000;20,00000
353,03631;33,33218; 83,21231;20,00000;20,00000
358,05065;33,83721; 82,49954;20,00000;20,00000
363,10077;34,34224; 81,78165;20,00000;20,00000
368,12326;34,84728; 81,04693;20,00000;20,00000
373,19395;35,35231; 80,33991;20,00000;20,00000
378,26934;35,85734; 79,61880;20,00000;20,00000
383,33391;36,36238; 78,89636;20,00000;20,00000
388,36699;36,86741; 78,19325;20,00000;20,00000
393,42587;37,37244; 77,49256;20,00000;20,00000
398,46584;37,87748; 76,78127;20,00000;20,00000
403,52234;38,38251; 76,09572;20,00000;20,00000
408,57615;38,88754; 75,36271;20,00000;20,00000
413,63166;39,39257; 74,63139;20,00000;20,00000
418,70152;39,89761; 73,90819;20,00000;20,00000
423,75172;40,40264; 73,19620;20,00000;20,00000
428,78838;40,90767; 72,47992;20,00000;20,00000
433,84208;41,41271; 71,75270;20,00000;20,00000
438,85539;41,91774; 71,00150;20,00000;20,00000
443,89809;42,42277; 70,24146;20,00000;20,00000
448,93237;42,92781; 69,45384;20,00000;20,00000
453,97332;43,43284; 68,64478;20,00000;20,00000
459,05126;43,93787; 67,86301;20,00000;20,00000
464,09223;44,44290; 67,05328;20,00000;20,00000
469,15713;44,94794; 66,24395;20,00000;20,00000
474,22387;45,45297; 65,43648;20,00000;20,00000
479,26819;45,95800; 64,62450;20,00000;20,00000
484,32097;46,46304; 63,80489;20,00000;20,00000
489,35424;46,96807; 62,98652;20,00000;20,00000
494,42319;47,47310; 62,15673;20,00000;20,00000
499,45552;47,97814; 61,29728;20,00000;20,00000
504,51999;48,48317; 60,41651;20,00000;20,00000
509,57110;48,98820; 59,53239;20,00000;20,00000
514,64266;49,49323; 58,62162;20,00000;20,00000
519,67905;49,99827; 57,71550;20,00000;20,00000
524,72751;50,50330; 56,80325;20,00000;20,00000
529,74999;51,00833; 55,89758;20,00000;20,00000
534,78686;51,51337; 55,02133;20,00000;20,00000
539,86022;52,01840; 54,16385;20,00000;20,00000
544,92345;52,52343; 53,35105;20,00000;20,00000
549,97111;53,02847; 52,56710;20,00000;20,00000
555,00282;53,53350; 51,82471;20,00000;20,00000
560,06783;54,03853; 51,11901;20,00000;20,00000
565,17980;54,54356; 50,38698;20,00000;20,00000
570,26378;55,04860; 49,74684;20,00000;20,00000
575,32505;55,55363; 49,07097;20,00000;20,00000
580,35358;56,05866; 48,46058;20,00000;20,00000
585,39052;56,56370; 47,83702;20,00000;20,00000
590,42134;57,06873; 47,26264;20,00000;20,00000
595,48607;57,57376; 46,69936;20,00000;20,00000
600,55824;58,07880; 46,10820;20,00000;20,00000
605,62039;58,58383; 45,52740;20,00000;20,00000
610,65287;59,08886; 44,95751;20,00000;20,00000
615,68974;59,59389; 44,35726;20,00000;20,00000
620,72914;60,09893; 43,77362;20,00000;20,00000
625,77712;60,60396; 43,20087;20,00000;20,00000
630,81470;61,10899; 42,59647;20,00000;20,00000
635,86712;61,61403; 42,05336;20,00000;20,00000
640,93766;62,11906; 41,51393;20,00000;20,00000
645,99487;62,62409; 40,97365;20,00000;20,00000
651,06085;63,12913; 40,41907;20,00000;20,00000
656,10524;63,63416; 39,86229;20,00000;20,00000
661,13931;64,13919; 39,28789;20,00000;20,00000
666,18536;64,64422; 38,73620;20,00000;20,00000
671,21540;65,14926; 38,20179;20,00000;20,00000
676,30434;65,65429; 37,66973;20,00000;20,00000
681,34357;66,15932; 37,14266;20,00000;20,00000
686,41860;66,66436; 36,62421;20,00000;20,00000
691,49487;67,16939; 36,26129;20,00000;20,00000
696,29785;67,67442; 36,66736;20,00000;20,00000
701,20451;68,17946; 37,05812;20,00000;20,00000
706,32276;68,68449; 37,20753;20,00000;20,00000
711,58607;69,18952; 37,25341;20,00000;20,00000
716,78932;69,69455; 37,25617;20,00000;20,00000
721,87871;70,19959; 37,27552;20,00000;20,00000
726,88568;70,70462; 37,26898;20,00000;20,00000
731,89138;71,20965; 37,25588;20,00000;20,00000
736,92713;71,71469; 37,24266;20,00000;20,00000
742,00808;72,21972; 37,21082;20,00000;20,00000
747,08683;72,72475; 37,17560;20,00000;20,00000
752,12677;73,22979; 37,12323;20,00000;20,00000
757,14333;73,73482; 37,06356;20,00000;20,00000
762,18655;74,23985; 36,98156;20,00000;20,00000
767,18125;74,74488; 36,89983;20,00000;20,00000
772,22620;75,24992; 36,77518;20,00000;20,00000
777,36180;75,75495; 36,65848;20,00000;20,00000
782,49483;76,25998; 36,48365;20,00000;20,00000
787,51782;76,76502; 36,28510;20,00000;20,00000
792,50843;77,27005; 36,09466;20,00000;20,00000
797,54949;77,77508; 35,86627;20,00000;20,00000
802,60004;78,28012; 35,63438;20,00000;20,00000
807,68145;78,78515; 35,36315;20,00000;20,00000
812,74785;79,29018; 35,08241;20,00000;20,00000
817,79287;79,79521; 34,75861;20,00000;20,00000
822,81041;80,30025; 34,43801;20,00000;20,00000
827,84956;80,80528; 34,13334;20,00000;20,00000
832,89499;81,31031; 33,79577;20,00000;20,00000
837,96713;81,81535; 33,47485;20,00000;20,00000
843,03375;82,32038; 33,11036;20,00000;20,00000
848,08538;82,82541; 32,75504;20,00000;20,00000
853,13936;83,33045; 32,35296;20,00000;20,00000
858,19082;83,83548; 31,96338;20,00000;20,00000
863,24119;84,34051; 31,57616;20,00000;20,00000
868,27403;84,84554; 31,14956;20,00000;20,00000
873,32777;85,35058; 30,70659;20,00000;20,00000
878,38134;85,85561; 30,22757;20,00000;20,00000
883,43263;86,36064; 29,68253;20,00000;20,00000
888,49126;86,86568; 29,10325;20,00000;20,00000
893,54359;87,37071; 28,43787;20,00000;20,00000
898,59110;87,87574; 27,69962;20,00000;20,00000
903,64038;88,38078; 26,90579;20,00000;20,00000
908,68843;88,88581; 26,05050;20,00000;20,00000
913,75896;89,39084; 25,14219;20,00000;20,00000
918,80918;89,89587; 24,18573;20,00000;20,00000
923,86102;90,40091; 23,19574;20,00000;20,00000
928,91266;90,90594; 22,07746;20,00000;20,00000
933,95637;91,41097; 20,96927;20,00000;20,00000
939,01973;91,91601; 19,78902;20,00000;20,00000
944,07451;92,42104; 18,56628;20,00000;20,00000
949,12678;92,92607; 17,25492;20,00000;20,00000
954,18236;93,43111; 15,86610;20,00000;20,00000
959,23209;93,93614; 14,57520;20,00000;20,00000
964,28536;94,44117; 13,47789;20,00000;20,00000
969,33737;94,94620; 12,62717;20,00000;20,00000
974,38045;95,45124; 11,97806;20,00000;20,00000
979,43060;95,95627; 11,49934;20,00000;20,00000
984,47996;96,46130; 11,16840;20,00000;20,00000
989,52752;96,96634; 10,91750;20,00000;20,00000
994,57781;97,47137; 10,70978;20,00000;20,00000
999,63560;97,97640; 10,56059;20,00000;20,00000

File: HCS@MoS2 (3).txt
##Temp./oC	Time/min	Mass/%	Gas Flow(purge1)/(ml/min)	Gas Flow(protective)/(ml/min)
25,208	0	100	20	20
25,13604	0,35352	99,95069	20	20
25,67734	0,70705	99,93774	20	20
27,05306	1,06057	99,92593	20	20
29,17218	1,41409	99,86853	20	20
31,93663	1,76762	99,83583	20	20
35,28462	2,12114	99,77783	20	20
39,03345	2,47466	99,74007	20	20
43,09341	2,82818	99,67188	20	20
47,37184	3,18171	99,55241	20	20
51,77074	3,53523	99,40391	20	20
56,12712	3,88875	99,22133	20	20
60,40781	4,24228	99,0003	20	20
64,585	4,5958	98,69827	20	20
68,64763	4,94932	98,40946	20	20
72,545	5,30285	98,06497	20	20
76,30389	5,65637	97,72913	20	20
79,94983	6,00989	97,35669	20	20
83,49926	6,36342	97,00491	20	20
87,01896	6,71694	96,64726	20	20
90,50964	7,07046	96,29836	20	20
93,99581	7,42399	95,98273	20	20
97,49226	7,77751	95,6524	20	20
100,95911	8,13103	95,31085	20	20
104,45104	8,48455	95,07146	20	20
107,93606	8,83808	94,83268	20	20
111,4253	9,1916	94,60167	20	20
114,93462	9,54512	94,40207	20	20
118,43651	9,89865	94,22002	20	20
121,96194	10,25217	94,0745	20	20
125,4942	10,60569	93,95564	20	20
129,05004	10,95922	93,85506	20	20
132,62197	11,31274	93,77915	20	20
136,19982	11,66626	93,71063	20	20
139,76893	12,01979	93,63475	20	20
143,32526	12,37331	93,57281	20	20
146,91502	12,72683	93,51893	20	20
150,45808	13,08035	93,46342	20	20
154,01335	13,43388	93,4165	20	20
157,55595	13,7874	93,37615	20	20
161,07711	14,14092	93,34458	20	20
164,60295	14,49445	93,30505	20	20
168,1431	14,84797	93,28597	20	20
171,66284	15,20149	93,26867	20	20
175,17321	15,55502	93,24346	20	20
178,70783	15,90854	93,19757	20	20
182,23848	16,26206	93,1702	20	20
185,79941	16,61559	93,14908	20	20
189,35613	16,96911	93,14011	20	20
192,9322	17,32263	93,11365	20	20
196,4804	17,67616	93,05694	20	20
200,04656	18,02968	93,04675	20	20
203,59001	18,3832	93,01856	20	20
207,12055	18,73672	92,964	20	20
210,68251	19,09025	92,92141	20	20
214,23004	19,44377	92,86669	20	20
217,741	19,79729	92,80868	20	20
221,27584	20,15082	92,76236	20	20
224,82332	20,50434	92,70452	20	20
228,33599	20,85786	92,62259	20	20
231,89655	21,21139	92,52332	20	20
235,43061	21,56491	92,43545	20	20
238,97474	21,91843	92,32877	20	20
242,52974	22,27196	92,19261	20	20
246,0514	22,62548	92,07817	20	20
249,59398	22,979	91,95243	20	20
253,11267	23,33252	91,81521	20	20
256,65293	23,68605	91,63975	20	20
260,18551	24,03957	91,45661	20	20
263,70716	24,39309	91,25446	20	20
267,23108	24,74662	91,0518	20	20
270,76616	25,10014	90,83314	20	20
274,29804	25,45366	90,6007	20	20
277,8515	25,80719	90,36702	20	20
281,39976	26,16071	90,11529	20	20
284,93227	26,51423	89,86235	20	20
288,4872	26,86776	89,57482	20	20
292,00679	27,22128	89,29153	20	20
295,53616	27,5748	89,02613	20	20
299,03287	27,92832	88,75792	20	20
302,53087	28,28185	88,45577	20	20
306,05478	28,63537	88,14996	20	20
309,56817	28,98889	87,83657	20	20
313,09519	29,34242	87,54393	20	20
316,66524	29,69594	87,2112	20	20
320,24722	30,04946	86,86584	20	20
323,81169	30,40299	86,53481	20	20
327,3645	30,75651	86,18073	20	20
330,89929	31,11003	85,8035	20	20
334,40464	31,46356	85,43603	20	20
337,92194	31,81708	85,06518	20	20
341,46989	32,1706	84,65727	20	20
344,99104	32,52413	84,22107	20	20
348,51674	32,87765	83,80309	20	20
352,03758	33,23117	83,35802	20	20
355,53836	33,58469	82,8417	20	20
359,06411	33,93822	82,35733	20	20
362,58327	34,29174	81,85553	20	20
366,12988	34,64526	81,34046	20	20
369,6336	34,99879	80,84109	20	20
373,19395	35,35231	80,33991	20	20
376,74641	35,70583	79,83674	20	20
380,28772	36,05936	79,3305	20	20
383,84498	36,41288	78,82709	20	20
387,36856	36,7664	78,32958	20	20
390,89429	37,11993	77,82915	20	20
394,42437	37,47345	77,34551	20	20
397,96484	37,82697	76,8451	20	20
401,50597	38,18049	76,36745	20	20
405,03632	38,53402	75,86678	20	20
408,57615	38,88754	75,36271	20	20
412,11372	39,24106	74,85889	20	20
415,6574	39,59459	74,33746	20	20
419,19473	39,94811	73,8425	20	20
422,74576	40,30163	73,3465	20	20
426,27635	40,65516	72,83477	20	20
429,80084	41,00868	72,33679	20	20
433,33785	41,3622	71,81811	20	20
436,84943	41,71573	71,30784	20	20
440,36939	42,06925	70,76539	20	20
443,89809	42,42277	70,24146	20	20
447,42149	42,7763	69,69136	20	20
450,94717	43,12982	69,12614	20	20
454,49163	43,48334	68,56375	20	20
458,02531	43,83686	68,01212	20	20
461,57171	44,19039	67,46136	20	20
465,10434	44,54391	66,89268	20	20
468,65834	44,89743	66,3267	20	20
472,19568	45,25096	65,75122	20	20
475,74288	45,60448	65,19835	20	20
479,26819	45,958	64,6245	20	20
482,80387	46,31153	64,05208	20	20
486,33435	46,66505	63,4705	20	20
489,86058	47,01857	62,90141	20	20
493,38261	47,3721	62,31812	20	20
496,94061	47,72562	61,72752	20	20
500,46775	48,07914	61,11834	20	20
504,00365	48,43266	60,50354	20	20
507,54205	48,78619	59,87297	20	20
511,10216	49,13971	59,27245	20	20
514,64266	49,49323	58,62162	20	20
518,17117	49,84676	57,99191	20	20
521,69783	50,20028	57,35863	20	20
525,22893	50,5538	56,70924	20	20
528,74662	50,90733	56,07907	20	20
532,28323	51,26085	55,45698	20	20
535,80779	51,61437	54,84786	20	20
539,34711	51,9679	54,25348	20	20
542,89317	52,32142	53,67436	20	20
546,44373	52,67494	53,11205	20	20
549,97111	53,02847	52,5671	20	20
553,49833	53,38199	52,03609	20	20
557,02955	53,73551	51,53736	20	20
560,59138	54,08903	51,0387	20	20
564,1413	54,44256	50,52107	20	20
567,72482	54,79608	50,06487	20	20
571,28802	55,1496	49,60806	20	20
574,8108	55,50313	49,14063	20	20
578,33427	55,85665	48,71001	20	20
581,84575	56,21017	48,27885	20	20
585,39052	56,5637	47,83702	20	20
588,92082	56,91722	47,4521	20	20
592,43707	57,27074	47,03946	20	20
595,99699	57,62427	46,63791	20	20
599,54843	57,97779	46,2371	20	20
603,10931	58,33131	45,80572	20	20
606,62853	58,68483	45,41393	20	20
610,14902	59,03836	45,01207	20	20
613,68264	59,39188	44,6065	20	20
617,20785	59,7454	44,16096	20	20
620,72914	60,09893	43,77362	20	20
624,26273	60,45245	43,35688	20	20
627,78963	60,80597	42,97659	20	20
631,31769	61,1595	42,54443	20	20
634,85018	61,51302	42,16711	20	20
638,37591	61,86654	41,78513	20	20
641,94365	62,22007	41,40841	20	20
645,49281	62,57359	41,0304	20	20
649,02988	62,92711	40,64542	20	20
652,57736	63,28063	40,25373	20	20
656,10524	63,63416	39,86229	20	20
659,61567	63,98768	39,45277	20	20
663,15874	64,3412	39,0741	20	20
666,68159	64,69473	38,68251	20	20
670,22709	65,04825	38,31329	20	20
673,75986	65,40177	37,93587	20	20
677,2865	65,7553	37,57608	20	20
680,83623	66,10882	37,19538	20	20
684,37563	66,46234	36,82501	20	20
687,92861	66,81587	36,47728	20	20
691,49487	67,16939	36,26129	20	20
694,84626	67,52291	36,42085	20	20
698,23813	67,87644	36,89694	20	20
701,70056	68,22996	37,0798	20	20
705,2804	68,58348	37,18856	20	20
708,95723	68,937	37,23455	20	20
712,63999	69,29053	37,2534	20	20
716,28339	69,64405	37,25587	20	20
719,86427	69,99757	37,26953	20	20
723,3891	70,3511	37,28048	20	20
726,88568	70,70462	37,26898	20	20
730,39006	71,05814	37,2673	20	20
733,89511	71,41167	37,24899	20	20
737,43972	71,76519	37,24203	20	20
740,9908	72,11871	37,21828	20	20
744,54735	72,47224	37,19428	20	20
748,09075	72,82576	37,16897	20	20
751,62811	73,17928	37,12737	20	20
755,1403	73,5328	37,09588	20	20
758,65562	73,88633	37,03856	20	20
762,18655	74,23985	36,98156	20	20
765,68308	74,59337	36,92308	20	20
769,17627	74,9469	36,85036	20	20
772,74327	75,30042	36,76695	20	20
776,34899	75,65394	36,68106	20	20
779,91895	76,00747	36,57738	20	20
783,50269	76,36099	36,45221	20	20
787,01087	76,71451	36,3064	20	20
790,52609	77,06804	36,16881	20	20
794,01839	77,42156	36,03881	20	20
797,54949	77,77508	35,86627	20	20
801,08326	78,12861	35,71043	20	20
804,63605	78,48213	35,52937	20	20
808,19379	78,83565	35,33562	20	20
811,74115	79,18917	35,1349	20	20
815,26623	79,5427	34,91672	20	20
818,7906	79,89622	34,69645	20	20
822,3044	80,24974	34,47008	20	20
825,83021	80,60327	34,26402	20	20
829,38173	80,95679	34,03675	20	20
832,89499	81,31031	33,79577	20	20
836,45411	81,66384	33,5757	20	20
840,0054	82,01736	33,33114	20	20
843,53065	82,37088	33,07031	20	20
847,07174	82,72441	32,83913	20	20
850,59602	83,07793	32,54463	20	20
854,1503	83,43145	32,27575	20	20
857,69206	83,78497	32,0061	20	20
861,21873	84,1385	31,72242	20	20
864,74713	84,49202	31,45657	20	20
868,27403	84,84554	31,14956	20	20
871,81933	85,19907	30,8331	20	20
875,35794	85,55259	30,51848	20	20
878,88907	85,90611	30,17306	20	20
882,42645	86,25964	29,79789	20	20
885,95617	86,61316	29,3822	20	20
889,4984	86,96668	28,97207	20	20
893,03815	87,32021	28,50468	20	20
896,56529	87,67373	28,01675	20	20
900,1054	88,02725	27,47142	20	20
903,64038	88,38078	26,90579	20	20
907,17593	88,7343	26,31591	20	20
910,71675	89,08782	25,67677	20	20
914,25679	89,44134	25,05635	20	20
917,79281	89,79487	24,38429	20	20
921,33753	90,14839	23,70086	20	20
924,86151	90,50191	22,98751	20	20
928,4048	90,85544	22,17791	20	20
931,94038	91,20896	21,43141	20	20
935,48209	91,56248	20,63344	20	20
939,01973	91,91601	19,78902	20	20
942,55757	92,26953	18,92267	20	20
946,08937	92,62305	18,02243	20	20
949,63249	92,97658	17,1224	20	20
953,17894	93,3301	16,14853	20	20
956,70502	93,68362	15,22315	20	20
960,24428	94,03714	14,3438	20	20
963,78929	94,39067	13,5614	20	20
967,31489	94,74419	12,94266	20	20
970,84515	95,09771	12,39244	20	20
974,38045	95,45124	11,97806	20	20
977,91243	95,80476	11,6356	20	20
981,44424	96,15828	11,35614	20	20
984,98083	96,51181	11,13888	20	20
988,51606	96,86533	10,95595	20	20
992,06129	97,21885	10,81239	20	20
995,56766	97,57238	10,67603	20	20
999,11722	97,9259	10,56977	20	20
999,6356	97,9764	10,56059	20	20