Folder: FINAL_PROJECT_GREEN_HYDROGEN/TGA (part 3)

File: SiO2@PDA secagem.csv
#EXPORTTYPE:                 ;DATA ALL
#FILE:                       ;SiO2@PIPSECAGEM60C.ngb-ds3
#FORMAT:                     ;NETZSCH5
#FTYPE:                      ;ASCII
#IDENTITY:                   ;SiO2@PIPSECAGEM60C
#DECIMAL:                    ;COMMA
#SEPARATOR:                  ;SEMICOLON
#MTYPE:                      ;TG
#INSTRUMENT:                 ;NETZSCH STA 449F3
#PROJECT:                    ;-
#DATE/TIME:                  ;19/11/2024 13:25:15 (UTC-3)
#CORR. FILE:                 ;Correction.ngb-bs3
#TEMPCAL:                    ;Cal_08_2024_Ar_5C.ngb-ts3
#SENSITIVITY:                ;---
#LABORATORY:                 ;Proc de Nanocerümicas
#OPERATOR:                   ;Danilo Janes
#REMARK:                     ;
#SAMPLE:                     ;SiO2@PIPSECAGEM60C
#SAMPLE MASS /mg:            ;11,9130
#MATERIAL:                   ;
#REFERENCE:                  ;
#REFERENCE MASS /mg:         ;
#TYPE OF CRUCIBLE:           ;DTA/TG crucible Al2O3
#SAMPLE CRUCIBLE MASS /mg:   ;0
#REFERENCE CRUCIBLE MASS /mg:;
#TG RANGE /mg:               ;35000
#TAU-R:                      ;---
#CORR. CODE:                 ;020
#EXO:                        ;-1
#RANGE:                      ;20oC/10,0(K/min)/1000oC
#SEGMENT:                    ;S1/1
#SEG. 1:                     ;20oC/10,0(K/min)/1000oC

##Temp./oC;Time/min;Mass/%;Gas Flow(purge1)/(ml/min);Gas Flow(protective)/(ml/min)
 26,58200; 0,00000;100,00000;20,00000;20,00000
 26,66940; 0,50503; 99,94274;20,00000;20,00000
 28,01037; 1,01007; 99,69871;20,00000;20,00000
 30,67252; 1,51510; 99,59888;20,00000;20,00000
 34,55032; 2,02013; 99,52981;20,00000;20,00000
 39,40559; 2,52516; 99,45935;20,00000;20,00000
 45,06937; 3,03020; 99,35278;20,00000;20,00000
 51,20580; 3,53523; 99,20618;20,00000;20,00000
 57,45638; 4,04026; 98,93032;20,00000;20,00000
 63,62359; 4,54530; 98,48881;20,00000;20,00000
 69,51750; 5,05033; 97,85905;20,00000;20,00000
 75,09662; 5,55536; 97,12147;20,00000;20,00000
 80,40225; 6,06040; 96,28983;20,00000;20,00000
 85,53847; 6,56543; 95,43803;20,00000;20,00000
 90,55367; 7,07046; 94,56551;20,00000;20,00000
 95,53959; 7,57549; 93,71691;20,00000;20,00000
100,51574; 8,08053; 92,89344;20,00000;20,00000
105,49732; 8,58556; 92,16436;20,00000;20,00000
110,47935; 9,09059; 91,49254;20,00000;20,00000
115,47309; 9,59563; 90,91460;20,00000;20,00000
120,49365;10,10066; 90,35913;20,00000;20,00000
125,52067;10,60569; 89,91607;20,00000;20,00000
130,58497;11,11073; 89,52080;20,00000;20,00000
135,67229;11,61576; 89,18011;20,00000;20,00000
140,77525;12,12079; 88,85957;20,00000;20,00000
145,88468;12,62583; 88,58688;20,00000;20,00000
150,96413;13,13086; 88,37707;20,00000;20,00000
156,06030;13,63589; 88,21403;20,00000;20,00000
161,11372;14,14092; 88,08848;20,00000;20,00000
166,17202;14,64596; 87,97602;20,00000;20,00000
171,20736;15,15099; 87,86020;20,00000;20,00000
176,21772;15,65602; 87,77129;20,00000;20,00000
181,26036;16,16106; 87,68056;20,00000;20,00000
186,32449;16,66609; 87,59318;20,00000;20,00000
191,40458;17,17112; 87,49408;20,00000;20,00000
196,47795;17,67616; 87,39433;20,00000;20,00000
201,54694;18,18119; 87,30104;20,00000;20,00000
206,60660;18,68622; 87,19841;20,00000;20,00000
211,64762;19,19125; 87,09459;20,00000;20,00000
216,70158;19,69629; 86,99170;20,00000;20,00000
221,74803;20,20132; 86,90402;20,00000;20,00000
226,79629;20,70635; 86,81408;20,00000;20,00000
231,84336;21,21139; 86,70598;20,00000;20,00000
236,92131;21,71642; 86,58267;20,00000;20,00000
241,98769;22,22145; 86,43952;20,00000;20,00000
247,02717;22,72648; 86,31413;20,00000;20,00000
252,06076;23,23152; 86,19702;20,00000;20,00000
257,10757;23,73655; 86,04778;20,00000;20,00000
262,15447;24,24158; 85,88627;20,00000;20,00000
267,20984;24,74662; 85,70479;20,00000;20,00000
272,25687;25,25165; 85,52705;20,00000;20,00000
277,34521;25,75668; 85,34838;20,00000;20,00000
282,37512;26,26172; 85,15853;20,00000;20,00000
287,42458;26,76675; 84,95270;20,00000;20,00000
292,45168;27,27178; 84,74322;20,00000;20,00000
297,50184;27,77681; 84,55319;20,00000;20,00000
302,53030;28,28185; 84,30998;20,00000;20,00000
307,58546;28,78688; 84,05158;20,00000;20,00000
312,62909;29,29191; 83,77702;20,00000;20,00000
317,69560;29,79695; 83,50835;20,00000;20,00000
322,75015;30,30198; 83,21604;20,00000;20,00000
327,82886;30,80701; 82,91182;20,00000;20,00000
332,88365;31,31205; 82,63429;20,00000;20,00000
337,92180;31,81708; 82,32182;20,00000;20,00000
342,98723;32,32211; 81,99002;20,00000;20,00000
348,04785;32,82714; 81,64548;20,00000;20,00000
353,08833;33,33218; 81,30440;20,00000;20,00000
358,12615;33,83721; 80,88349;20,00000;20,00000
363,15426;34,34224; 80,48365;20,00000;20,00000
368,19750;34,84728; 80,10075;20,00000;20,00000
373,24205;35,35231; 79,73323;20,00000;20,00000
378,29252;35,85734; 79,30827;20,00000;20,00000
383,34835;36,36238; 78,90981;20,00000;20,00000
388,37657;36,86741; 78,52954;20,00000;20,00000
393,44437;37,37244; 78,12072;20,00000;20,00000
398,47951;37,87748; 77,69416;20,00000;20,00000
403,53447;38,38251; 77,31039;20,00000;20,00000
408,57046;38,88754; 76,89862;20,00000;20,00000
413,62915;39,39257; 76,47317;20,00000;20,00000
418,68586;39,89761; 76,05784;20,00000;20,00000
423,75160;40,40264; 75,64218;20,00000;20,00000
428,80081;40,90767; 75,24369;20,00000;20,00000
433,84581;41,41271; 74,82910;20,00000;20,00000
438,89243;41,91774; 74,41483;20,00000;20,00000
443,94233;42,42277; 73,99309;20,00000;20,00000
449,00172;42,92781; 73,55368;20,00000;20,00000
454,05880;43,43284; 73,13595;20,00000;20,00000
459,08740;43,93787; 72,71741;20,00000;20,00000
464,13106;44,44290; 72,28880;20,00000;20,00000
469,16901;44,94794; 71,87193;20,00000;20,00000
474,22693;45,45297; 71,43692;20,00000;20,00000
479,27674;45,95800; 70,99816;20,00000;20,00000
484,32766;46,46304; 70,57119;20,00000;20,00000
489,38472;46,96807; 70,13429;20,00000;20,00000
494,43651;47,47310; 69,73070;20,00000;20,00000
499,48911;47,97814; 69,30158;20,00000;20,00000
504,53410;48,48317; 68,84407;20,00000;20,00000
509,58879;48,98820; 68,42761;20,00000;20,00000
514,62688;49,49323; 68,01383;20,00000;20,00000
519,66855;49,99827; 67,60968;20,00000;20,00000
524,70321;50,50330; 67,17987;20,00000;20,00000
529,77637;51,00833; 66,80124;20,00000;20,00000
534,83745;51,51337; 66,41437;20,00000;20,00000
539,89505;52,01840; 66,03793;20,00000;20,00000
544,94422;52,52343; 65,64160;20,00000;20,00000
549,98176;53,02847; 65,27805;20,00000;20,00000
555,00904;53,53350; 64,89973;20,00000;20,00000
560,05127;54,03853; 64,53856;20,00000;20,00000
565,11613;54,54356; 64,18467;20,00000;20,00000
570,19130;55,04860; 63,84010;20,00000;20,00000
575,24943;55,55363; 63,50028;20,00000;20,00000
580,30822;56,05866; 63,17985;20,00000;20,00000
585,35649;56,56370; 62,88050;20,00000;20,00000
590,42498;57,06873; 62,57428;20,00000;20,00000
595,48398;57,57376; 62,27910;20,00000;20,00000
600,52461;58,07880; 61,96968;20,00000;20,00000
605,56706;58,58383; 61,69643;20,00000;20,00000
610,61374;59,08886; 61,40447;20,00000;20,00000
615,68670;59,59389; 61,11761;20,00000;20,00000
620,74600;60,09893; 60,85246;20,00000;20,00000
625,77810;60,60396; 60,59260;20,00000;20,00000
630,83470;61,10899; 60,31272;20,00000;20,00000
635,88198;61,61403; 60,04262;20,00000;20,00000
640,92007;62,11906; 59,77963;20,00000;20,00000
645,99303;62,62409; 59,54099;20,00000;20,00000
651,04574;63,12913; 59,27582;20,00000;20,00000
656,10096;63,63416; 59,00794;20,00000;20,00000
661,18784;64,13919; 58,76148;20,00000;20,00000
666,25188;64,64422; 58,51131;20,00000;20,00000
671,30539;65,14926; 58,26596;20,00000;20,00000
676,37897;65,65429; 57,97343;20,00000;20,00000
681,46179;66,15932; 57,60399;20,00000;20,00000
686,41359;66,66436; 57,34053;20,00000;20,00000
691,37206;67,16939; 57,24594;20,00000;20,00000
696,41603;67,67442; 57,19990;20,00000;20,00000
701,51933;68,17946; 57,16362;20,00000;20,00000
706,63136;68,68449; 57,13543;20,00000;20,00000
711,70003;69,18952; 57,12582;20,00000;20,00000
716,75082;69,69455; 57,09728;20,00000;20,00000
721,77475;70,19959; 57,08388;20,00000;20,00000
726,80514;70,70462; 57,06003;20,00000;20,00000
731,83250;71,20965; 57,05617;20,00000;20,00000
736,88770;71,71469; 57,05464;20,00000;20,00000
741,95606;72,21972; 57,03603;20,00000;20,00000
747,03897;72,72475; 57,01465;20,00000;20,00000
752,12285;73,22979; 56,99573;20,00000;20,00000
757,16975;73,73482; 56,99196;20,00000;20,00000
762,23155;74,23985; 56,96718;20,00000;20,00000
767,27182;74,74488; 56,97419;20,00000;20,00000
772,32210;75,24992; 56,95878;20,00000;20,00000
777,35857;75,75495; 56,93867;20,00000;20,00000
782,40283;76,25998; 56,91765;20,00000;20,00000
787,45887;76,76502; 56,88399;20,00000;20,00000
792,53053;77,27005; 56,89751;20,00000;20,00000
797,57310;77,77508; 56,88283;20,00000;20,00000
802,64619;78,28012; 56,86729;20,00000;20,00000
807,70317;78,78515; 56,86097;20,00000;20,00000
812,72770;79,29018; 56,81523;20,00000;20,00000
817,77117;79,79521; 56,78738;20,00000;20,00000
822,82837;80,30025; 56,76739;20,00000;20,00000
827,89462;80,80528; 56,78867;20,00000;20,00000
832,94531;81,31031; 56,75730;20,00000;20,00000
837,98572;81,81535; 56,74934;20,00000;20,00000
843,04360;82,32038; 56,74557;20,00000;20,00000
848,08466;82,82541; 56,73950;20,00000;20,00000
853,15231;83,33045; 56,70698;20,00000;20,00000
858,21313;83,83548; 56,69558;20,00000;20,00000
863,25543;84,34051; 56,66748;20,00000;20,00000
868,30170;84,84554; 56,65743;20,00000;20,00000
873,31652;85,35058; 56,64230;20,00000;20,00000
878,35198;85,85561; 56,60953;20,00000;20,00000
883,41441;86,36064; 56,60459;20,00000;20,00000
888,48828;86,86568; 56,59776;20,00000;20,00000
893,56646;87,37071; 56,59028;20,00000;20,00000
898,60800;87,87574; 56,55857;20,00000;20,00000
903,66310;88,38078; 56,55486;20,00000;20,00000
908,71671;88,88581; 56,53152;20,00000;20,00000
913,77589;89,39084; 56,52653;20,00000;20,00000
918,82331;89,89587; 56,51715;20,00000;20,00000
923,87287;90,40091; 56,53152;20,00000;20,00000
928,92082;90,90594; 56,50930;20,00000;20,00000
933,97515;91,41097; 56,50798;20,00000;20,00000
939,01510;91,91601; 56,49123;20,00000;20,00000
944,06639;92,42104; 56,46935;20,00000;20,00000
949,13344;92,92607; 56,47699;20,00000;20,00000
954,19655;93,43111; 56,46613;20,00000;20,00000
959,25061;93,93614; 56,46402;20,00000;20,00000
964,29717;94,44117; 56,43492;20,00000;20,00000
969,34001;94,94620; 56,43622;20,00000;20,00000
974,38792;95,45124; 56,41318;20,00000;20,00000
979,43712;95,95627; 56,39279;20,00000;20,00000
984,49051;96,46130; 56,37278;20,00000;20,00000
989,53417;96,96634; 56,37106;20,00000;20,00000
994,57578;97,47137; 56,36364;20,00000;20,00000
999,63901;97,97640; 56,35301;20,00000;20,00000

File: SiO2@PDA.txt
##Temp./oC	Time/min	Mass/%	Gas Flow(purge1)/(ml/min)	Gas Flow(protective)/(ml/min)
26,582	0	100	20	20
26,5459	0,35352	99,93909	20	20
27,02048	0,70705	99,83947	20	20
28,23291	1,06057	99,69744	20	20
30,05046	1,41409	99,62372	20	20
32,47415	1,76762	99,5592	20	20
35,42977	2,12114	99,5069	20	20
38,88217	2,47466	99,46809	20	20
42,72744	2,82818	99,39942	20	20
46,88626	3,18171	99,3225	20	20
51,2058	3,53523	99,20618	20	20
55,58335	3,88875	99,01719	20	20
59,92344	4,24228	98,77529	20	20
64,21597	4,5958	98,43146	20	20
68,34188	4,94932	98,0151	20	20
72,3402	5,30285	97,49914	20	20
76,18279	5,65637	96,95872	20	20
79,89377	6,00989	96,37055	20	20
83,49804	6,36342	95,7766	20	20
87,03866	6,71694	95,17024	20	20
90,55367	7,07046	94,56551	20	20
94,03989	7,42399	93,97623	20	20
97,54099	7,77751	93,39542	20	20
101,00011	8,13103	92,81686	20	20
104,50699	8,48455	92,29418	20	20
107,9896	8,83808	91,82409	20	20
111,47234	9,1916	91,36056	20	20
114,96893	9,54512	90,96803	20	20
118,4834	9,89865	90,57793	20	20
121,99046	10,25217	90,21851	20	20
125,52067	10,60569	89,91607	20	20
129,06903	10,95922	89,62352	20	20
132,61865	11,31274	89,37223	20	20
136,17858	11,66626	89,1481	20	20
139,75518	12,01979	88,91898	20	20
143,31929	12,37331	88,72705	20	20
146,89091	12,72683	88,54651	20	20
150,46649	13,08035	88,39578	20	20
154,027	13,43388	88,26688	20	20
157,58038	13,7874	88,17201	20	20
161,11372	14,14092	88,08848	20	20
164,65512	14,49445	88,00946	20	20
168,17624	14,84797	87,93047	20	20
171,70053	15,20149	87,85252	20	20
175,21647	15,55502	87,78801	20	20
178,73549	15,90854	87,72465	20	20
182,26201	16,26206	87,6636	20	20
185,82844	16,61559	87,59964	20	20
189,3824	16,96911	87,53227	20	20
192,93079	17,32263	87,46368	20	20
196,47795	17,67616	87,39433	20	20
200,03482	18,02968	87,3332	20	20
203,57678	18,3832	87,25257	20	20
207,11468	18,73672	87,18792	20	20
210,6494	19,09025	87,11653	20	20
214,18668	19,44377	87,03667	20	20
217,72934	19,79729	86,96737	20	20
221,2357	20,15082	86,90915	20	20
224,76976	20,50434	86,8415	20	20
228,30202	20,85786	86,77804	20	20
231,84336	21,21139	86,70598	20	20
235,398	21,56491	86,61583	20	20
238,94285	21,91843	86,53973	20	20
242,47679	22,27196	86,4236	20	20
246,01921	22,62548	86,33765	20	20
249,55097	22,979	86,24969	20	20
253,07481	23,33252	86,1719	20	20
256,59283	23,68605	86,06171	20	20
260,13252	24,03957	85,95919	20	20
263,6729	24,39309	85,83679	20	20
267,20984	24,74662	85,70479	20	20
270,75658	25,10014	85,58122	20	20
274,28579	25,45366	85,45076	20	20
277,82883	25,80719	85,33274	20	20
281,36806	26,16071	85,19243	20	20
284,90904	26,51423	85,05936	20	20
288,4277	26,86776	84,91047	20	20
291,95643	27,22128	84,77085	20	20
295,49247	27,5748	84,62598	20	20
299,01893	27,92832	84,49588	20	20
302,5303	28,28185	84,30998	20	20
306,07401	28,63537	84,13503	20	20
309,61581	28,98889	83,94158	20	20
313,15034	29,34242	83,7547	20	20
316,68086	29,69594	83,55753	20	20
320,23049	30,04946	83,37055	20	20
323,76915	30,40299	83,15514	20	20
327,31574	30,75651	82,93849	20	20
330,85133	31,11003	82,73984	20	20
334,38471	31,46356	82,5409	20	20
337,9218	31,81708	82,32182	20	20
341,47214	32,1706	82,09559	20	20
345,00989	32,52413	81,8503	20	20
348,54428	32,87765	81,60578	20	20
352,08223	33,23117	81,36953	20	20
355,60563	33,58469	81,09797	20	20
359,12733	33,93822	80,80331	20	20
362,65206	34,29174	80,52618	20	20
366,18065	34,64526	80,25207	20	20
369,70308	34,99879	80,00106	20	20
373,24205	35,35231	79,73323	20	20
376,77641	35,70583	79,42855	20	20
380,30656	36,05936	79,15928	20	20
383,84126	36,41288	78,87489	20	20
387,38293	36,7664	78,60607	20	20
390,93329	37,11993	78,32457	20	20
394,4572	37,47345	78,03435	20	20
397,98377	37,82697	77,73885	20	20
401,50889	38,18049	77,46801	20	20
405,04347	38,53402	77,19561	20	20
408,57046	38,88754	76,89862	20	20
412,12058	39,24106	76,60504	20	20
415,65639	39,59459	76,30468	20	20
419,17874	39,94811	76,01262	20	20
422,72823	40,30163	75,71805	20	20
426,27772	40,65516	75,44537	20	20
429,81296	41,00868	75,15897	20	20
433,33359	41,3622	74,86022	20	20
436,87969	41,71573	74,572	20	20
440,40461	42,06925	74,28117	20	20
443,94233	42,42277	73,99309	20	20
447,49418	42,7763	73,68327	20	20
451,02216	43,12982	73,38715	20	20
454,55505	43,48334	73,09333	20	20
458,08711	43,83686	72,79925	20	20
461,61282	44,19039	72,51366	20	20
465,1358	44,54391	72,19846	20	20
468,66837	44,89743	71,9148	20	20
472,20104	45,25096	71,60909	20	20
475,747	45,60448	71,30328	20	20
479,27674	45,958	70,99816	20	20
482,81895	46,31153	70,69137	20	20
486,35404	46,66505	70,39988	20	20
489,88972	47,01857	70,08767	20	20
493,43136	47,3721	69,80418	20	20
496,95783	47,72562	69,52627	20	20
500,5017	48,07914	69,2066	20	20
504,02893	48,43266	68,89431	20	20
507,56848	48,78619	68,59736	20	20
511,08829	49,13971	68,29613	20	20
514,62688	49,49323	68,01383	20	20
518,15488	49,84676	67,72709	20	20
521,67792	50,20028	67,44701	20	20
525,21104	50,5538	67,1418	20	20
528,75773	50,90733	66,88023	20	20
532,30163	51,26085	66,61537	20	20
535,86191	51,61437	66,33002	20	20
539,39275	51,9679	66,06704	20	20
542,9293	52,32142	65,79589	20	20
546,47953	52,67494	65,53442	20	20
549,98176	53,02847	65,27805	20	20
553,49079	53,38199	65,00905	20	20
557,0317	53,73551	64,75512	20	20
560,55229	54,08903	64,49774	20	20
564,09516	54,44256	64,24945	20	20
567,64982	54,79608	64,0156	20	20
571,194	55,1496	63,76938	20	20
574,73663	55,50313	63,54179	20	20
578,28145	55,85665	63,3034	20	20
581,82467	56,21017	63,09313	20	20
585,35649	56,5637	62,8805	20	20
588,89723	56,91722	62,66249	20	20
592,43979	57,27074	62,46152	20	20
595,98935	57,62427	62,25196	20	20
599,50756	57,97779	62,02829	20	20
603,04195	58,33131	61,83216	20	20
606,58248	58,68483	61,63811	20	20
610,12123	59,03836	61,43633	20	20
613,66441	59,39188	61,23321	20	20
617,20072	59,7454	61,04106	20	20
620,746	60,09893	60,85246	20	20
624,2627	60,45245	60,67174	20	20
627,80069	60,80597	60,47501	20	20
631,33447	61,1595	60,29161	20	20
634,86134	61,51302	60,10358	20	20
638,39997	61,86654	59,9179	20	20
641,94864	62,22007	59,73391	20	20
645,48762	62,57359	59,56427	20	20
649,02737	62,92711	59,39022	20	20
652,55492	63,28063	59,19736	20	20
656,10096	63,63416	59,00794	20	20
659,66588	63,98768	58,82894	20	20
663,21109	64,3412	58,65535	20	20
666,75618	64,69473	58,48195	20	20
670,2979	65,04825	58,30904	20	20
673,84909	65,40177	58,12992	20	20
677,4063	65,7553	57,91303	20	20
680,96038	66,10882	57,63412	20	20
684,44514	66,46234	57,41148	20	20
687,88351	66,81587	57,30239	20	20
691,37206	67,16939	57,24594	20	20
694,906	67,52291	57,21699	20	20
698,47303	67,87644	57,17985	20	20
702,02856	68,22996	57,16193	20	20
705,59516	68,58348	57,13821	20	20
709,17702	68,937	57,13265	20	20
712,71526	69,29053	57,11988	20	20
716,24747	69,64405	57,10124	20	20
719,77212	69,99757	57,09212	20	20
723,28674	70,3511	57,08126	20	20
726,80514	70,70462	57,06003	20	20
730,32603	71,05814	57,05868	20	20
733,85334	71,41167	57,04932	20	20
737,39631	71,76519	57,05295	20	20
740,946	72,11871	57,04113	20	20
744,50062	72,47224	57,02678	20	20
748,06005	72,82576	57,00823	20	20
751,62	73,17928	56,99831	20	20
755,16365	73,5328	56,99154	20	20
758,6897	73,88633	56,98894	20	20
762,23155	74,23985	56,96718	20	20
765,7567	74,59337	56,97245	20	20
769,28392	74,9469	56,97321	20	20
772,82003	75,30042	56,952	20	20
776,35197	75,65394	56,94451	20	20
779,88185	76,00747	56,92961	20	20
783,41062	76,36099	56,91596	20	20
786,95244	76,71451	56,88632	20	20
790,50184	77,06804	56,88317	20	20
794,03598	77,42156	56,90424	20	20
797,5731	77,77508	56,88283	20	20
801,12124	78,12861	56,86899	20	20
804,6586	78,48213	56,86729	20	20
808,20169	78,83565	56,8594	20	20
811,72583	79,18917	56,82877	20	20
815,24031	79,5427	56,80158	20	20
818,77856	79,89622	56,78618	20	20
822,31282	80,24974	56,77078	20	20
825,86671	80,60327	56,78595	20	20
829,40453	80,95679	56,78425	20	20
832,94531	81,31031	56,7573	20	20
836,46393	81,66384	56,75752	20	20
840,01325	82,01736	56,74133	20	20
843,5413	82,37088	56,74557	20	20
847,08443	82,72441	56,74482	20	20
850,63064	83,07793	56,7156	20	20
854,16401	83,43145	56,7078	20	20
857,71029	83,78497	56,69826	20	20
861,24046	84,1385	56,67773	20	20
864,7837	84,49202	56,65738	20	20
868,3017	84,84554	56,65743	20	20
871,80674	85,19907	56,64565	20	20
875,33031	85,55259	56,63466	20	20
878,85806	85,90611	56,60959	20	20
882,39849	86,25964	56,59785	20	20
885,963	86,61316	56,60516	20	20
889,5107	86,96668	56,5986	20	20
893,05597	87,32021	56,59028	20	20
896,58605	87,67373	56,57549	20	20
900,11261	88,02725	56,55705	20	20
903,6631	88,38078	56,55486	20	20
907,18762	88,7343	56,53152	20	20
910,73726	89,08782	56,53133	20	20
914,27325	89,44134	56,52735	20	20
917,80624	89,79487	56,51976	20	20
921,34797	90,14839	56,52645	20	20
924,88135	90,50191	56,5315	20	20
928,42658	90,85544	56,5102	20	20
931,95001	91,20896	56,51211	20	20
935,49377	91,56248	56,49692	20	20
939,0151	91,91601	56,49123	20	20
942,55831	92,26953	56,49799	20	20
946,1063	92,62305	56,4728	20	20
949,63913	92,97658	56,47634	20	20
953,18306	93,3301	56,46604	20	20
956,71913	93,68362	56,47286	20	20
960,25499	94,03714	56,45701	20	20
963,79063	94,39067	56,44074	20	20
967,32365	94,74419	56,4325	20	20
970,85966	95,09771	56,4251	20	20
974,38792	95,45124	56,41318	20	20
977,91727	95,80476	56,40678	20	20
981,45759	96,15828	56,37803	20	20
984,98911	96,51181	56,37027	20	20
988,51566	96,86533	56,37087	20	20
992,05308	97,21885	56,36535	20	20
995,59157	97,57238	56,36284	20	20
999,13529	97,9259	56,35457	20	20
999,63901	97,9764	56,35301	20	20