Folder: FINAL_PROJECT_GREEN_HYDROGEN/TGA (part 2)

File: MoS2 NS - Sódio.csv
#EXPORTTYPE:                 ;DATA ALL
#FILE:                       ;MoS2 NS - Sõdio.ngb-ds3
#FORMAT:                     ;NETZSCH5
#FTYPE:                      ;ASCII
#IDENTITY:                   ;MoS2 NS - Sõdio
#DECIMAL:                    ;COMMA
#SEPARATOR:                  ;SEMICOLON
#MTYPE:                      ;TG
#INSTRUMENT:                 ;NETZSCH STA 449F3
#PROJECT:                    ;-
#DATE/TIME:                  ;21/11/2024 13:23:36 (UTC-3)
#CORR. FILE:                 ;Correction.ngb-bs3
#TEMPCAL:                    ;Cal_08_2024_Ar_5C.ngb-ts3
#SENSITIVITY:                ;---
#LABORATORY:                 ;Proc de Nanocerümicas
#OPERATOR:                   ;Danilo Janes
#REMARK:                     ;
#SAMPLE:                     ;MoS2 NS - Sõdio
#SAMPLE MASS /mg:            ;12,6370
#MATERIAL:                   ;
#REFERENCE:                  ;
#REFERENCE MASS /mg:         ;
#TYPE OF CRUCIBLE:           ;DTA/TG crucible Al2O3
#SAMPLE CRUCIBLE MASS /mg:   ;0
#REFERENCE CRUCIBLE MASS /mg:;
#TG RANGE /mg:               ;35000
#TAU-R:                      ;---
#CORR. CODE:                 ;020
#EXO:                        ;-1
#RANGE:                      ;20oC/10,0(K/min)/1000oC
#SEGMENT:                    ;S1/1
#SEG. 1:                     ;20oC/10,0(K/min)/1000oC

##Temp./oC;Time/min;Mass/%;Gas Flow(purge1)/(ml/min);Gas Flow(protective)/(ml/min)
 25,80900; 0,00000;100,00000;20,00000;20,00000
 31,80900; 1,70953; 99,93429;20,00000;20,00000
 37,80900; 2,36886; 99,97531;20,00000;20,00000
 43,80900; 2,91032; 99,98491;20,00000;20,00000
 49,80900; 3,40848; 99,91539;20,00000;20,00000
 55,80900; 3,89442; 99,86237;20,00000;20,00000
 61,80900; 4,38453; 99,71286;20,00000;20,00000
 67,80900; 4,89139; 99,54656;20,00000;20,00000
 73,80900; 5,42649; 99,29256;20,00000;20,00000
 79,80900; 5,99418; 99,02223;20,00000;20,00000
 85,80900; 6,58568; 98,77487;20,00000;20,00000
 91,80900; 7,19120; 98,55548;20,00000;20,00000
 97,80900; 7,80474; 98,35939;20,00000;20,00000
103,80900; 8,41715; 98,17158;20,00000;20,00000
109,80900; 9,02934; 98,06847;20,00000;20,00000
115,80900; 9,63725; 97,96409;20,00000;20,00000
121,80900;10,24162; 97,93225;20,00000;20,00000
127,80900;10,84070; 97,91727;20,00000;20,00000
133,80900;11,43237; 97,93463;20,00000;20,00000
139,80900;12,02060; 97,92578;20,00000;20,00000
145,80900;12,61225; 97,90364;20,00000;20,00000
151,80900;13,20708; 97,87318;20,00000;20,00000
157,80900;13,80593; 97,84681;20,00000;20,00000
163,80900;14,40706; 97,84315;20,00000;20,00000
169,80900;15,00915; 97,78354;20,00000;20,00000
175,80900;15,61083; 97,73896;20,00000;20,00000
181,80900;16,21018; 97,63393;20,00000;20,00000
187,80900;16,80541; 97,54000;20,00000;20,00000
193,80900;17,40222; 97,39584;20,00000;20,00000
199,80900;17,99936; 97,24106;20,00000;20,00000
205,80900;18,59862; 97,03998;20,00000;20,00000
211,80900;19,19843; 96,79582;20,00000;20,00000
217,80900;19,79929; 96,53582;20,00000;20,00000
223,80900;20,39992; 96,24362;20,00000;20,00000
229,80900;21,00076; 95,88603;20,00000;20,00000
235,80900;21,60040; 95,47643;20,00000;20,00000
241,80900;22,19941; 95,02770;20,00000;20,00000
247,80900;22,79900; 94,54508;20,00000;20,00000
253,80900;23,39996; 94,00812;20,00000;20,00000
259,80900;23,99945; 93,45810;20,00000;20,00000
265,80900;24,59728; 92,85176;20,00000;20,00000
271,80900;25,19667; 92,19668;20,00000;20,00000
277,80900;25,79988; 91,55357;20,00000;20,00000
283,80900;26,40366; 90,82252;20,00000;20,00000
289,80900;27,01001; 90,12423;20,00000;20,00000
295,80900;27,61099; 89,39996;20,00000;20,00000
301,80900;28,20837; 88,67629;20,00000;20,00000
307,80900;28,80863; 87,96289;20,00000;20,00000
313,80900;29,40880; 87,19123;20,00000;20,00000
319,80900;30,01025; 86,44579;20,00000;20,00000
325,80900;30,61061; 85,72261;20,00000;20,00000
331,80900;31,20947; 85,00667;20,00000;20,00000
337,80900;31,80709; 84,30608;20,00000;20,00000
343,80900;32,40614; 83,63902;20,00000;20,00000
349,80900;33,00512; 82,95347;20,00000;20,00000
355,80900;33,60511; 82,24512;20,00000;20,00000
361,80900;34,20503; 81,55781;20,00000;20,00000
367,80900;34,80594; 80,91878;20,00000;20,00000
373,80900;35,40576; 80,28182;20,00000;20,00000
379,80900;36,00590; 79,58429;20,00000;20,00000
385,80900;36,60573; 78,84026;20,00000;20,00000
391,80900;37,20616; 78,04385;20,00000;20,00000
397,80900;37,80460; 77,20887;20,00000;20,00000
403,80900;38,40518; 76,32324;20,00000;20,00000
409,80900;39,00486; 75,44836;20,00000;20,00000
415,80900;39,60708; 74,53554;20,00000;20,00000
421,80900;40,21024; 73,63263;20,00000;20,00000
427,80900;40,80787; 72,79161;20,00000;20,00000
433,80900;41,40751; 71,90860;20,00000;20,00000
439,80900;42,00662; 70,64478;20,00000;20,00000
445,80900;42,61519; 69,51313;20,00000;20,00000
451,80900;43,21941; 68,84509;20,00000;20,00000
457,80900;43,81656; 68,32883;20,00000;20,00000
463,80900;44,41389; 67,96832;20,00000;20,00000
469,80900;45,01359; 67,73718;20,00000;20,00000
475,80900;45,61903; 67,63243;20,00000;20,00000
481,80900;46,22726; 67,70489;20,00000;20,00000
487,80900;46,83047; 68,16926;20,00000;20,00000
493,80900;47,43501; 68,80121;20,00000;20,00000
499,80900;48,04604; 69,12973;20,00000;20,00000
505,80900;48,64283; 69,27085;20,00000;20,00000
511,80900;49,22397; 69,29435;20,00000;20,00000
517,80900;49,80771; 69,30759;20,00000;20,00000
523,80900;50,40340; 69,32129;20,00000;20,00000
529,80900;51,00637; 69,33501;20,00000;20,00000
535,80900;51,60974; 69,33842;20,00000;20,00000
541,80900;52,20931; 69,37168;20,00000;20,00000
547,80900;52,80660; 69,37722;20,00000;20,00000
553,80900;53,40461; 69,38154;20,00000;20,00000
559,80900;54,00450; 69,38757;20,00000;20,00000
565,80900;54,60705; 69,38199;20,00000;20,00000
571,80900;55,20936; 69,38117;20,00000;20,00000
577,80900;55,80782; 69,39144;20,00000;20,00000
583,80900;56,40555; 69,39272;20,00000;20,00000
589,80900;57,00420; 69,36604;20,00000;20,00000
595,80900;57,60306; 69,36061;20,00000;20,00000
601,80900;58,20358; 69,35903;20,00000;20,00000
607,80900;58,80397; 69,35823;20,00000;20,00000
613,80900;59,40406; 69,35382;20,00000;20,00000
619,80900;60,00408; 69,29726;20,00000;20,00000
625,80900;60,60317; 69,28068;20,00000;20,00000
631,80900;61,20278; 69,27945;20,00000;20,00000
637,80900;61,80301; 69,21475;20,00000;20,00000
643,80900;62,40311; 69,18651;20,00000;20,00000
649,80900;63,00270; 69,17297;20,00000;20,00000
655,80900;63,60253; 69,10952;20,00000;20,00000
661,80900;64,20306; 69,09454;20,00000;20,00000
667,80900;64,80256; 69,03437;20,00000;20,00000
673,80900;65,40208; 69,04630;20,00000;20,00000
679,80900;66,00198; 69,04174;20,00000;20,00000
685,80900;66,60228; 69,02505;20,00000;20,00000
691,80900;67,20318; 69,02036;20,00000;20,00000
697,80900;67,80154; 68,99253;20,00000;20,00000
703,80900;68,40095; 68,98552;20,00000;20,00000
709,80900;68,99994; 68,98868;20,00000;20,00000
715,80900;69,60122; 68,98780;20,00000;20,00000
721,80900;70,20183; 68,98523;20,00000;20,00000
727,80900;70,80086; 68,96261;20,00000;20,00000
733,80900;71,40096; 68,94907;20,00000;20,00000
739,80900;72,00030; 68,91904;20,00000;20,00000
745,80900;72,59991; 68,86524;20,00000;20,00000
751,80900;73,20077; 68,78685;20,00000;20,00000
757,80900;73,80194; 68,66785;20,00000;20,00000
763,80900;74,40372; 68,52984;20,00000;20,00000
769,80900;75,00031; 68,35870;20,00000;20,00000
775,80900;75,58725; 68,13100;20,00000;20,00000
781,80900;76,18704; 67,87081;20,00000;20,00000
787,80900;76,79578; 67,59893;20,00000;20,00000
793,80900;77,40037; 67,28392;20,00000;20,00000
799,80900;77,99833; 66,93661;20,00000;20,00000
805,80900;78,59458; 66,52562;20,00000;20,00000
811,80900;79,19266; 65,97496;20,00000;20,00000
817,80900;79,79450; 65,27713;20,00000;20,00000
823,80900;80,39707; 64,43326;20,00000;20,00000
829,80900;80,99758; 63,46664;20,00000;20,00000
835,80900;81,59581; 62,25179;20,00000;20,00000
841,80900;82,19477; 60,91399;20,00000;20,00000
847,80900;82,79723; 59,58200;20,00000;20,00000
853,80900;83,39944; 58,11126;20,00000;20,00000
859,80900;83,99890; 56,78468;20,00000;20,00000
865,80900;84,59753; 55,50350;20,00000;20,00000
871,80900;85,19686; 54,27560;20,00000;20,00000
877,80900;85,79644; 53,12603;20,00000;20,00000
883,80900;86,39561; 52,02444;20,00000;20,00000
889,80900;86,99684; 50,88381;20,00000;20,00000
895,80900;87,59629; 49,64939;20,00000;20,00000
901,80900;88,19481; 48,28455;20,00000;20,00000
907,80900;88,79462; 46,71987;20,00000;20,00000
913,80900;89,39566; 45,02705;20,00000;20,00000
919,80900;89,99644; 43,11647;20,00000;20,00000
925,80900;90,59731; 40,86704;20,00000;20,00000
931,80900;91,19934; 38,16202;20,00000;20,00000
937,80900;91,80164; 34,67799;20,00000;20,00000
943,80900;92,39833; 30,92036;20,00000;20,00000
949,80900;92,99384; 27,48542;20,00000;20,00000
955,80900;93,59218; 24,09680;20,00000;20,00000
961,80900;94,19304; 21,04273;20,00000;20,00000
967,80900;94,79325; 18,73165;20,00000;20,00000
973,80900;95,39551; 17,11621;20,00000;20,00000
979,80900;95,99587; 16,03234;20,00000;20,00000
985,80900;96,59562; 15,31213;20,00000;20,00000
991,80900;97,19503; 14,81074;20,00000;20,00000
997,80900;97,79430; 14,43844;20,00000;20,00000

File: MoS2 NS - Sódio.txt
##Temp./oC	Time/min	Mass/%	Gas Flow(purge1)/(ml/min)	Gas Flow(protective)/(ml/min)
25,809	0	100	20	20
29,809	1,42744	99,94233	20	20
33,809	1,95044	99,94693	20	20
37,809	2,36886	99,97531	20	20
41,809	2,73683	99,97187	20	20
45,809	3,07914	99,96302	20	20
49,809	3,40848	99,91539	20	20
53,809	3,73304	99,9156	20	20
57,809	4,05665	99,8276	20	20
61,809	4,38453	99,71286	20	20
65,809	4,71952	99,61479	20	20
69,809	5,06642	99,45561	20	20
73,809	5,42649	99,29256	20	20
77,809	5,80133	99,11721	20	20
81,809	6,18944	98,94322	20	20
85,809	6,58568	98,77487	20	20
89,809	6,98874	98,61855	20	20
93,809	7,39494	98,49042	20	20
97,809	7,80474	98,35939	20	20
101,809	8,21362	98,21383	20	20
105,809	8,62122	98,13376	20	20
109,809	9,02934	98,06847	20	20
113,809	9,43493	98,00943	20	20
117,809	9,83968	97,96706	20	20
121,809	10,24162	97,93225	20	20
125,809	10,64175	97,91834	20	20
129,809	11,03879	97,93368	20	20
133,809	11,43237	97,93463	20	20
137,809	11,82489	97,93655	20	20
141,809	12,21831	97,91252	20	20
145,809	12,61225	97,90364	20	20
149,809	13,00858	97,88962	20	20
153,809	13,4063	97,8752	20	20
157,809	13,80593	97,84681	20	20
161,809	14,2062	97,8468	20	20
165,809	14,60788	97,82003	20	20
169,809	15,00915	97,78354	20	20
173,809	15,41061	97,77395	20	20
177,809	15,81044	97,69717	20	20
181,809	16,21018	97,63393	20	20
185,809	16,60729	97,56985	20	20
189,809	17,00442	97,48542	20	20
193,809	17,40222	97,39584	20	20
197,809	17,80057	97,28876	20	20
201,809	18,19883	97,16296	20	20
205,809	18,59862	97,03998	20	20
209,809	18,99867	96,87464	20	20
213,809	19,39872	96,70706	20	20
217,809	19,79929	96,53582	20	20
221,809	20,19962	96,3538	20	20
225,809	20,60011	96,14619	20	20
229,809	21,00076	95,88603	20	20
233,809	21,40072	95,59412	20	20
237,809	21,79971	95,32568	20	20
241,809	22,19941	95,0277	20	20
245,809	22,59879	94,70704	20	20
249,809	22,99902	94,40734	20	20
253,809	23,39996	94,00812	20	20
257,809	23,80006	93,66772	20	20
261,809	24,19836	93,2192	20	20
265,809	24,59728	92,85176	20	20
269,809	24,99669	92,41334	20	20
273,809	25,39753	91,98553	20	20
277,809	25,79988	91,55357	20	20
281,809	26,20203	91,10303	20	20
285,809	26,60648	90,61333	20	20
289,809	27,01001	90,12423	20	20
293,809	27,41066	89,64174	20	20
297,809	27,81036	89,14897	20	20
301,809	28,20837	88,67629	20	20
305,809	28,60858	88,19576	20	20
309,809	29,00799	87,70988	20	20
313,809	29,4088	87,19123	20	20
317,809	29,8103	86,71631	20	20
321,809	30,20997	86,18109	20	20
325,809	30,61061	85,72261	20	20
329,809	31,00976	85,23735	20	20
333,809	31,40883	84,76384	20	20
337,809	31,80709	84,30608	20	20
341,809	32,20645	83,84606	20	20
345,809	32,6051	83,41769	20	20
349,809	33,00512	82,95347	20	20
353,809	33,40511	82,46498	20	20
357,809	33,80494	82,0484	20	20
361,809	34,20503	81,55781	20	20
365,809	34,60546	81,15384	20	20
369,809	35,00553	80,71003	20	20
373,809	35,40576	80,28182	20	20
377,809	35,80563	79,78585	20	20
381,809	36,20563	79,34427	20	20
385,809	36,60573	78,84026	20	20
389,809	37,00561	78,32614	20	20
393,809	37,40526	77,75788	20	20
397,809	37,8046	77,20887	20	20
401,809	38,20537	76,61409	20	20
405,809	38,60582	76,03166	20	20
409,809	39,00486	75,44836	20	20
413,809	39,40647	74,82388	20	20
417,809	39,80894	74,235	20	20
421,809	40,21024	73,63263	20	20
425,809	40,60874	73,05086	20	20
429,809	41,00746	72,52036	20	20
433,809	41,40751	71,9086	20	20
437,809	41,80621	71,0843	20	20
441,809	42,2087	70,23597	20	20
445,809	42,61519	69,51313	20	20
449,809	43,0195	69,07216	20	20
453,809	43,41916	68,66392	20	20
457,809	43,81656	68,32883	20	20
461,809	44,21455	68,07673	20	20
465,809	44,61359	67,87538	20	20
469,809	45,01359	67,73718	20	20
473,809	45,41598	67,6441	20	20
477,809	45,82206	67,61969	20	20
481,809	46,22726	67,70489	20	20
485,809	46,63027	67,98403	20	20
489,809	47,03138	68,38661	20	20
493,809	47,43501	68,80121	20	20
497,809	47,84354	69,03262	20	20
501,809	48,24745	69,18359	20	20
505,809	48,64283	69,27085	20	20
509,809	49,03095	69,28466	20	20
513,809	49,41785	69,3042	20	20
517,809	49,80771	69,30759	20	20
521,809	50,20389	69,31622	20	20
525,809	50,60403	69,32665	20	20
529,809	51,00637	69,33501	20	20
533,809	51,40915	69,33217	20	20
537,809	51,80987	69,35349	20	20
541,809	52,20931	69,37168	20	20
545,809	52,6078	69,37629	20	20
549,809	53,00576	69,37881	20	20
553,809	53,40461	69,38154	20	20
557,809	53,80361	69,3862	20	20
561,809	54,20503	69,38197	20	20
565,809	54,60705	69,38199	20	20
569,809	55,00913	69,38197	20	20
573,809	55,40848	69,37961	20	20
577,809	55,80782	69,39144	20	20
581,809	56,20596	69,39384	20	20
585,809	56,60522	69,37681	20	20
589,809	57,0042	69,36604	20	20
593,809	57,40315	69,3614	20	20
597,809	57,80327	69,35982	20	20
601,809	58,20358	69,35903	20	20
605,809	58,60364	69,35903	20	20
609,809	59,00429	69,35667	20	20
613,809	59,40406	69,35382	20	20
617,809	59,80441	69,30679	20	20
621,809	60,20348	69,28441	20	20
625,809	60,60317	69,28068	20	20
629,809	61,00306	69,28227	20	20
633,809	61,40291	69,2462	20	20
637,809	61,80301	69,21475	20	20
641,809	62,20329	69,2054	20	20
645,809	62,603	69,1881	20	20
649,809	63,0027	69,17297	20	20
653,809	63,40223	69,12471	20	20
657,809	63,80281	69,1058	20	20
661,809	64,20306	69,09454	20	20
665,809	64,60227	69,0526	20	20
669,809	65,0028	69,04348	20	20
673,809	65,40208	69,0463	20	20
677,809	65,80204	69,04394	20	20
681,809	66,20211	69,03444	20	20
685,809	66,60228	69,02505	20	20
689,809	67,00378	68,99897	20	20
693,809	67,4023	69,02999	20	20
697,809	67,80154	68,99253	20	20
701,809	68,20102	68,98392	20	20
705,809	68,60003	68,98631	20	20
709,809	68,99994	68,98868	20	20
713,809	69,40108	68,98868	20	20
717,809	69,80198	68,98711	20	20
721,809	70,20183	68,98523	20	20
725,809	70,60092	68,97526	20	20
729,809	71,0001	68,95465	20	20
733,809	71,40096	68,94907	20	20
737,809	71,80074	68,93321	20	20
741,809	72,1999	68,89057	20	20
745,809	72,59991	68,86524	20	20
749,809	73,0003	68,81769	20	20
753,809	73,40086	68,75255	20	20
757,809	73,80194	68,66785	20	20
761,809	74,20347	68,59439	20	20
765,809	74,60277	68,47229	20	20
769,809	75,00031	68,3587	20	20
773,809	75,39206	68,20495	20	20
777,809	75,785	68,05367	20	20
781,809	76,18704	67,87081	20	20
785,809	76,59301	67,68151	20	20
789,809	76,99801	67,48204	20	20
793,809	77,40037	67,28392	20	20
797,809	77,79966	67,06911	20	20
801,809	78,19689	66,81983	20	20
805,809	78,59458	66,52562	20	20
809,809	78,99288	66,1741	20	20
813,809	79,39226	65,76389	20	20
817,809	79,7945	65,27713	20	20
821,809	80,19616	64,73488	20	20
825,809	80,5978	64,13201	20	20
829,809	80,99758	63,46664	20	20
833,809	81,39638	62,68685	20	20
837,809	81,79534	61,85011	20	20
841,809	82,19477	60,91399	20	20
845,809	82,59625	59,9813	20	20
849,809	82,99874	59,04964	20	20
853,809	83,39944	58,11126	20	20
857,809	83,79889	57,1846	20	20
861,809	84,1983	56,27152	20	20
865,809	84,59753	55,5035	20	20
869,809	84,99757	54,6913	20	20
873,809	85,3968	53,89196	20	20
877,809	85,79644	53,12603	20	20
881,809	86,1958	52,38377	20	20
885,809	86,59568	51,65595	20	20
889,809	86,99684	50,88381	20	20
893,809	87,39668	50,08587	20	20
897,809	87,79579	49,22739	20	20
901,809	88,19481	48,28455	20	20
905,809	88,59464	47,284	20	20
909,809	88,99481	46,17443	20	20
913,809	89,39566	45,02705	20	20
917,809	89,79635	43,76248	20	20
921,809	90,19673	42,40762	20	20
925,809	90,59731	40,86704	20	20
929,809	90,9987	39,10154	20	20
933,809	91,40021	37,07094	20	20
937,809	91,80164	34,67799	20	20
941,809	92,20092	32,12002	20	20
945,809	92,59677	29,74829	20	20
949,809	92,99384	27,48542	20	20
953,809	93,39222	25,20062	20	20
957,809	93,79253	23,00102	20	20
961,809	94,19304	21,04273	20	20
965,809	94,59275	19,41699	20	20
969,809	94,99484	18,13039	20	20
973,809	95,39551	17,11621	20	20
977,809	95,7958	16,3612	20	20
981,809	96,19517	15,73143	20	20
985,809	96,59562	15,31213	20	20
989,809	96,99485	14,97156	20	20
993,809	97,3947	14,65413	20	20
997,809	97,7943	14,43844	20	20