Folder: FINAL_PROJECT_GREEN_HYDROGEN/RAMAN/Raman_Ilum

Note: RAMAN/Raman_Ilum/HCS1.txt
3495.35	3566.16
3494.08	3901.32
3492.81	4177.89
3491.53	4402.68
3490.26	4592.53
3488.99	4743.1
3487.71	4804.58
3486.44	4938.26
3485.17	5053.53
3483.89	5115.95
3482.62	5163.68
3481.34	5252.74
3480.06	5289.42
3478.79	5313.37
3477.51	5420.26
3476.24	5447.74
3474.96	5528.95
3473.68	5634.68
3472.4	5701.21
3471.13	5789.74
3469.85	5919.16
3468.57	5988.05
3467.29	6142.95
3466.01	6207.63
3464.73	6339.21
3463.45	6452.42
3462.17	6596.74
3460.89	6716.9
3459.61	6880.63
3458.33	6977.32
3457.04	7138.16
3455.76	7251
3454.48	7398.16
3453.2	7519.68
3451.91	7641.26
3450.63	7748.79
3449.35	7882
3448.06	7994.58
3446.78	8141.74
3445.49	8211.32
3444.21	8309.42
3442.92	8409.68
3441.64	8474.58
3440.35	8558.63
3439.07	8672.89
3437.78	8691
3436.49	8802.47
3435.2	8860.32
3433.92	8943.58
3432.63	9043.53
3431.34	9098.63
3430.05	9178.05
3428.76	9263.26
3427.47	9292.79
3426.18	9396
3424.89	9468.21
3423.6	9521.37
3422.31	9584.42
3421.02	9621.58
3419.73	9674.21
3418.44	9751.63
3417.14	9847.68
3415.85	9918.42
3414.56	9981.95
3413.27	10059
3411.97	10132.2
3410.68	10260.7
3409.39	10299.1
3408.09	10422.1
3406.8	10533.6
3405.5	10609.2
3404.2	10694.9
3402.91	10759.9
3401.61	10935.5
3400.32	11048.1
3399.02	11122.7
3397.72	11232.5
3396.42	11301.6
3395.13	11415.6
3393.83	11489.3
3392.53	11566.1
3391.23	11694.4
3389.93	11792.2
3388.63	11870.4
3387.33	11951.8
3386.03	11987.3
3384.73	12109.6
3383.43	12143.9
3382.13	12211.2
3380.83	12263.7
3379.53	12305.6
3378.22	12379.3
3376.92	12470.3
3375.62	12484.6
3374.32	12573
3373.01	12643.9
3371.71	12708.3
3370.4	12732.8
3369.1	12754
3367.79	12826.7
3366.49	12840.1
3365.18	12946.3
3363.88	12990
3362.57	13048.7
3361.26	13038.9
3359.96	13136.6
3358.65	13189.8
3357.34	13253.7
3356.03	13315.2
3354.73	13385.2
3353.42	13498.8
3352.11	13558.6
3350.8	13649.9
3349.49	13766
3348.18	13866.7
3346.87	13977.3
3345.56	14052.2
3344.25	14151.4
3342.93	14289.2
3341.62	14359
3340.31	14423.3
3339	14569.6
3337.69	14621.9
3336.37	14721.9
3335.06	14859.7
3333.74	14916.8
3332.43	15008.1
3331.12	15057.7
3329.8	15129.8
3328.49	15212.5
3327.17	15254.7
3325.86	15300.6
3324.54	15438.9
3323.22	15445.5
3321.91	15523.4
3320.59	15543.5
3319.27	15586.4
3317.95	15594.6
3316.63	15626.9
3315.32	15622.7
3314	15679.4
3312.68	15720.4
3311.36	15761.4
3310.04	15788.2
3308.72	15861
3307.4	15959.9
3306.08	15940.1
3304.75	16035.7
3303.43	16120.3
3302.11	16217.1
3300.79	16323.7
3299.47	16452.3
3298.14	16675.4
3296.82	16851.7
3295.5	17055.5
3294.17	17290.5
3292.85	17541.9
3291.52	17881.5
3290.2	18271.5
3288.87	18615.8
3287.55	19036.1
3286.22	19489
3284.89	19988.2
3283.57	20541.5
3282.24	21122.4
3280.91	21687
3279.58	22430.1
3278.26	23092.5
3276.93	23870.6
3275.6	24601
3274.27	25430.2
3272.94	26239.4
3271.61	27185.2
3270.28	27988.6
3268.95	28880.9
3267.62	29781.2
3266.29	30712.7
3264.96	31543.1
3263.62	32433.6
3262.29	3326

Note: README.md
# ESFERAS OCAS HÃBRIDAS DE CARBONO E DISSULFETO DE MOLIBDÃŠNIO SUPORTADAS POR PAPEL PIROLISADO PARA ATIVIDADE CATALÃTICA EM PRODUÃ‡ÃƒO E ARMAZENAMENTO DE HIDROGÃŠNIO VERDE

![NanocompÃ³sito](IMAGENS/HCS@MoS2.png)

**Projeto Final** do curso de **Bacharelado em CiÃªncia e Tecnologia** na **Ilum - Escola de CiÃªncia**, integrada ao **Centro Nacional de Pesquisa em Energia e Materiais (CNPEM)**.

---

## ğŸ“„ Sobre o Projeto


ğŸ” **Objetivo**

Desenvolver eletrocatalisadores heteroestruturados em arquiteturas esfÃ©ricas ocas para a quebra da molÃ©cula da Ã¡gua, visando a produÃ§Ã£o e armazenamento de hidrogÃªnio verde.

âš—ï¸ **Metodologia**

![METODOLOGIA](IMAGENS/METODOLOGIA.png)

ğŸ”¬ **CaracterizaÃ§Ãµes**

- Microscopia de forÃ§a atÃ´mica (AFM)
- Isotermas de adorsÃ£o e dessorÃ§Ã£o de nitrogÃªnio (BET)
- Espalhamento dinÃ¢mico de luz (DLS)
- DifraÃ§Ã£o de raios X (DRX)
- Ensaio eletroquÃ­mico
- Espectroscopia de infravermelho por transformada de Fourier (FTIR)
- Microscopia eletrÃ´nica de varredura (MEV)
- Raman
- AnÃ¡lise termogravimÃ©trica (TGA)
- Espectroscopia de fotoelÃ©trons excitados por raios X (XPS)

## âš™ï¸ Ferramentas Utilizadas

![Python](https://img.shields.io/badge/Python-3.10-blue?logo=python&logoColor=white)
![Jupyter Notebook](https://img.shields.io/badge/Jupyter-Notebook-orange?logo=jupyter&logoColor=white)
![Pandas](https://img.shields.io/badge/Pandas-Data_Analysis-teal?logo=pandas&logoColor=white)
![NumPy](https://img.shields.io/badge/NumPy-Numerical_Computing-lightblue?logo=numpy&logoColor=white)
![Matplotlib](https://img.shields.io/badge/Matplotlib-Visualization-yellow?logo=plotly&logoColor=white)
![SciPy](https://img.shields.io/badge/SciPy-Scientific_Computing-blue?logo=scipy&logoColor=white)
![glob](https://img.shields.io/badge/glob-File_Management-lightgrey?logo=files&logoColor=white)
![Seaborn](https://img.shields.io/badge/Seaborn-Data_Visualization-teal?logo=seaborn&logoColor=white)
![Scikit-Learn](https://img.shields.io/badge/Scikit--Learn-Machine_Learning-orange?logo=scikit-learn&logoColor=white)

## â­ Resultados

![RESULTADOS](IMAGENS/RESULTADOS.png)

---

## ğŸ“Š Estrutura do RepositÃ³rio

ğŸ“‚ [FINAL_PROJECT_GREEN_HYDROGEN/](https://github.com/raphaella220046/FINAL_PROJECT_GREEN_HYDROGEN/tree/main) <br>
â”œâ”€â”€ ğŸ“ [AFM/](https://github.com/raphaella220046/FINAL_PROJECT_GREEN_HYDROGEN/tree/main/AFM) <br>
â”œâ”€â”€ ğŸ“ [BET/](https://github.com/raphaella220046/FINAL_PROJECT_GREEN_HYDROGEN/tree/main/BET) <br>
â”œâ”€â”€ ğŸ“ [DLS/](https://github.com/raphaella220046/FINAL_PROJECT_GREEN_HYDROGEN/tree/main/DLS) <br>
â”œâ”€â”€ ğŸ“ [DLS_MEV/](https://github.com/raphaella220046/FINAL_PROJECT_GREEN_HYDROGEN/tree/main/DLS_MEV) <br>
â”œâ”€â”€ ğŸ“ [DRX/](https://github.com/raphaella220046/FINAL_PROJECT_GREEN_HYDROGEN/tree/main/DRX) <br>
â”œâ”€â”€ ğŸ“ [ENSAIO ELETROQUÃMICO/](https://github.com/raphaella220046/FINAL_PROJECT_GREEN_HYDROGEN/tree/main/ENSAIO%20ELETROQU%C3%8DMICO) <br>
â”œâ”€â”€ ğŸ“ [FTIR/](https://github.com/r

File: HCS_MoS2_NF_Amonio.txt
3495.35	723.263
3486.44	1010.95
3477.51	1112.05
3468.57	1222
3459.61	1425.79
3450.63	1593.37
3441.64	1735.95
3432.63	1850.79
3423.6	1977.63
3414.56	2051.95
3405.5	2190.68
3396.42	2345.84
3387.33	2495.26
3378.22	2554.63
3369.1	2639.21
3359.96	2761.63
3350.8	2887.58
3341.62	3033.47
3332.43	3147.53
3323.22	3239.42
3314	3336.79
3304.75	3384.84
3295.5	3600.32
3286.22	4154.11
3276.93	5168.47
3267.62	6452.79
3258.29	7666.37
3248.95	8429.68
3239.59	8859.37
3230.21	9104.16
3220.82	9296
3211.41	9556.58
3201.98	9890.16
3192.53	10420.6
3183.07	10808.9
3173.59	11232.2
3164.1	11720.9
3154.58	12206.4
3145.05	12695.3
3135.5	13006.2
3125.94	13280.6
3116.36	13572.7
3106.76	13762.9
3097.14	14008.5
3087.5	14318.5
3077.85	14600.6
3068.18	14818.4
3058.5	14805.8
3048.8	14857.1
3039.07	15065.3
3029.34	15310.8
3019.58	15625.3
3009.81	16082.5
3000.01	16452.5
2990.21	16777.4
2980.38	17004.9
2970.54	17213.1
2960.67	17465.9
2950.8	17619.2
2940.9	17707.7
2930.98	17840.8
2921.05	17993.6
2911.1	18096.1
2901.13	18313.1
2891.15	18477.8
2881.15	18569
2871.12	18619.5
2861.09	18502.4
2851.03	18471.5
2840.95	18324.5
2830.86	18263.9
2820.75	18285.6
2810.62	18227.1
2800.47	18249.9
2790.31	18363.8
2780.13	18399
2769.92	18263.3
2759.71	18138.1
2749.47	18018.6
2739.21	17930.2
2728.94	18002.5
2718.65	17754.7
2708.34	17614.1
2698.01	17413.5
2687.66	17256.4
2677.3	17164.4
2666.91	17034.6
2656.51	16849.4
2646.09	16723.9
2635.65	16544.5
2625.19	16336.5
2614.72	16219.6
2604.22	15904.3
2593.71	15676.1
2583.18	15702.9
2572.63	15593.9
2562.06	15269.3
2551.47	15020.5
2540.86	14608.5
2530.24	14284.8
2519.59	14030.5
2508.93	13770.6
2498.25	13485.8
2487.55	13052.1
2476.83	12674.9
2466.09	12467.1
2455.34	12383.4
2444.56	12164.6
2433.77	11941.3
2422.95	11917.3
2412.12	11835.4
2401.27	11557
2390.4	11362.3
2379.51	11178.4
2368.6	10868.3
2357.67	10640.5
2346.72	10531.4
2335.75	10360.8
2324.77	10141
2313.76	9916.42
2302.74	9729.42
2291.69	9569
2280.63	9306.95
2269.55	9098.16
2258.44	8910.16
2247.32	8663.21
2236.18	8423.89
2225.02	8316.42
2213.84	8109.63
2202.64	7949.63
2191.42	7914.32
2180.18	7750.63
2168.92	7497.37
2157.65	7321.84
2146.35	7066.26
2135.03	6916.05
2123.69	6755
2112.33	6696.9
2100.96	6574.84
2089.56	6512.68
2078.14	6355.21
2066.7	6214.26
2055.25	6071.58
2043.77	5918.21
2032.27	5780.95
2020.76	5707.84
2009.22	5548.47
1997.66	5422.9
1986.09	5278.47
1974.49	5164.26
1962.87	5045.26
1951.23	4971
1939.57	4801.53
1927.89	4728.37
1916.2	4572.32
1904.48	4480.63
1892.74	4319.63
1880.98	4212.37
1869.2	4163.16
1857.4	4078.37
1845.57	3974.79
1833.73	3860.63
1821.87	3812.68
1809.99	3705.68
1798.08	3655.53
1786.16	3628.11
1774.21	3603.89
1762.25	3579.37
1750.26	3456.05
1738.25	3425.53
1726.22	3319.42
1714.18	3267.16
1702.11	3226.26
1690.01	3176.32
1677.9	3176.84
1665.77	3129.79
1653.61	3142.32
1641.44	3091.74
1629.24	3126.42
1617.03	3159.42
1604.79	3177
1592.53	3102.37
1580.25	3044.79
1567.94	3000.42
1555.62	2967.37
1543.28	2916.84
1530.91	2902.05
1518.52	2909.74
1506.11	2859.84
1493.68	2852.79
1481.23	2829.47
1468.76	2765.53
1456.26	2711.95
1443.75	2709.26
1431.21	2682.42
1418.65	2707.47
1406.07	2690.11
1393.46	2654.16
1380.84	2667.84
1368.19	2679.84
1355.52	2689.26
1342.83	2716.84
1330.12	2721.26
1317.39	2698.1
1304.63	2665.84
1291.85	2619.16
1279.05	2539.47
1266.23	2513.53
1253.38	2482.1
1240.52	2433.58
1227.63	2362.58
1214.72	2330.42
1201.78	2271.79
1188.83	2247.16
1175.85	2225.63
1162.85	2187
1149.83	2190.21
1136.78	2117.32
1123.71	2052
1110.62	2038.58
1097.51	1983.68
1084.38	2007.47
1071.22	1989.37
1058.04	1963.26
1044.83	1995.63
1031.61	1949.21
1018.36	1931.95
1005.09	1957.58
991.793	2020.42
978.477	2121.68
965.136	2112.26
951.773	2080.68
938.387	2098.63
924.978	2043.05
911.545	2056.26
898.09	2082.84
884.612	2125.74
871.11	2154.63
857.585	2157
844.037	2158.89
830.466	2144.47
816.871	2121.32
803.253	2104
789.611	2110.21
775.946	2100.95
762.258	2106.89
748.546	2088.53
734.81	2150.53
721.051	2152.84
707.268	2121.63
693.462	2105.58
679.632	2093.58
665.778	2087.79
651.9	2095.84
637.999	2118.89
624.073	2118.74
610.124	2080.95
596.151	2086.9
582.153	2081.05
568.132	2101.05
554.086	2086.9
540.017	2097
525.923	2599.53
511.805	2267.11
497.663	2146.63
483.497	2126.95
469.306	2127
455.091	2143.32
440.851	2137.42
426.587	2200.42
412.298	2215.63
397.986	2251.53
383.648	2282.58
369.286	2281.37
354.898	2243.37
340.487	2267.79
326.05	2291.26
311.59	2328.47
297.104	2285.63
282.593	2249
268.058	2283.63
253.497	2362.63
238.911	2366.74
224.3	2339.74
209.664	2223.74
195.003	2144.9
180.317	2071.68
165.606	2163.42
150.87	2172.21
136.108	2203.37
121.321	2329.37
106.508	2363.1
91.6705	2286.84
85.3029	1741.74

File: HCS_MoS2_NF_Sodio.txt
3495.35	2277.68
3486.44	3144.84
3477.51	3489.05
3468.57	3870.47
3459.61	4460
3450.63	5030
3441.64	5495
3432.63	5865.95
3423.6	6195.32
3414.56	6482.53
3405.5	6912.53
3396.42	7381.42
3387.33	7766.26
3378.22	8059.1
3369.1	8303.74
3359.96	8565.63
3350.8	8955.89
3341.62	9393.95
3332.43	9807.26
3323.22	10104
3314	10290.1
3304.75	10518.8
3295.5	11221.3
3286.22	12941.7
3276.93	16004.3
3267.62	20052.3
3258.29	23822.5
3248.95	26192.2
3239.59	27508.3
3230.21	28256.4
3220.82	28838.7
3211.41	29603.6
3201.98	30792.5
3192.53	32278.9
3183.07	33633.5
3173.59	34944.1
3164.1	36350.6
3154.58	37905.5
3145.05	39470.8
3135.5	40589.5
3125.94	41470.1
3116.36	42229.8
3106.76	42952
3097.14	43622.8
3087.5	44374.1
3077.85	45394.1
3068.18	45986.5
3058.5	46007
3048.8	46266.5
3039.07	46771.2
3029.34	47631.3
3019.58	48675.5
3009.81	49965.7
3000.01	51158
2990.21	52236.2
2980.38	52879.6
2970.54	53456
2960.67	54203.1
2950.8	54592.9
2940.9	54921.4
2930.98	55342.7
2921.05	55705.7
2911.1	56107.7
2901.13	56822.8
2891.15	57147.9
2881.15	57537.6
2871.12	57875.3
2861.09	57539.9
2851.03	57307.7
2840.95	56798.4
2830.86	56603.4
2820.75	56507.5
2810.62	56486.8
2800.47	56573.5
2790.31	56922.4
2780.13	57176.5
2769.92	56877.7
2759.71	56320.7
2749.47	55783.3
2739.21	55567.6
2728.94	55392.9
2718.65	54437.8
2708.34	54041.5
2698.01	53447.4
2687.66	53108.2
2677.3	52679.9
2666.91	52082.4
2656.51	51816.9
2646.09	51342.5
2635.65	50756.8
2625.19	50029.1
2614.72	49484.1
2604.22	48430.6
2593.71	47903.2
2583.18	47848.6
2572.63	47546.6
2562.06	46506.7
2551.47	45555.1
2540.86	44658.1
2530.24	43537.7
2519.59	42674.2
2508.93	41958.3
2498.25	40935.9
2487.55	39780.9
2476.83	38459.7
2466.09	37642.3
2455.34	37409.7
2444.56	36756.9
2433.77	36283.6
2422.95	36278.5
2412.12	35704.5
2401.27	34831.3
2390.4	34158.5
2379.51	33564.3
2368.6	32720.9
2357.67	32087.1
2346.72	31504.2
2335.75	31106.4
2324.77	30424
2313.76	29817.1
2302.74	29184.1
2291.69	28732.1
2280.63	27859.5
2269.55	27197.5
2258.44	26692.8
2247.32	25843.2
2236.18	25178.2
2225.02	24719.8
2213.84	24118.9
2202.64	23656.6
2191.42	23360.4
2180.18	22946.4
2168.92	22186.9
2157.65	21650.2
2146.35	21050.2
2135.03	20451.5
2123.69	20017.9
2112.33	19723.2
2100.96	19459.6
2089.56	19208.3
2078.14	18770.7
2066.7	18403.4
2055.25	17864.7
2043.77	17410.6
2032.27	17114.1
2020.76	16854.4
2009.22	16371.9
1997.66	15905.7
1986.09	15411.8
1974.49	15075.8
1962.87	14857.8
1951.23	14495.6
1939.57	14033.1
1927.89	13838.5
1916.2	13344.6
1904.48	13028.8
1892.74	12681.1
1880.98	12396
1869.2	12157.5
1857.4	11853.3
1845.57	11675.2
1833.73	11388.8
1821.87	11218.6
1809.99	10899.5
1798.08	10713.8
1786.16	10600.3
1774.21	10521.5
1762.25	10408
1750.26	10138.2
1738.25	9917.68
1726.22	9710.95
1714.18	9495.47
1702.11	9382.05
1690.01	9270.53
1677.9	9276.95
1665.77	9151.74
1653.61	9165.32
1641.44	9032.05
1629.24	9167.16
1617.03	9253.11
1604.79	9299.58
1592.53	9152.21
1580.25	8994.79
1567.94	8860.79
1555.62	8697.05
1543.28	8537.68
1530.91	8540.37
1518.52	8593.21
1506.11	8529.53
1493.68	8405.63
1481.23	8239.11
1468.76	8096.79
1456.26	7980.11
1443.75	7996.53
1431.21	7941.42
1418.65	7930.16
1406.07	7899.79
1393.46	7743.26
1380.84	7782.53
1368.19	7775.32
1355.52	7822.95
1342.83	7929.63
1330.12	7912.05
1317.39	7873.9
1304.63	7710.21
1291.85	7627.11
1279.05	7427.21
1266.23	7286.05
1253.38	7232.68
1240.52	7142.58
1227.63	6977.42
1214.72	6832.89
1201.78	6637.79
1188.83	6557.58
1175.85	6508.63
1162.85	6443.11
1149.83	6319.21
1136.78	6208.95
1123.71	6019
1110.62	5889.32
1097.51	5785.05
1084.38	5750.79
1071.22	5698.05
1058.04	5612.95
1044.83	5591.84
1031.61	5614.1
1018.36	5531.1
1005.09	5471.95
991.793	5557.63
978.477	5561.63
965.136	5579
951.773	5538.58
938.387	5593.63
924.978	5458.32
911.545	5461.53
898.09	5540.84
884.612	5539.47
871.11	5470.26
857.585	5485.58
844.037	5452.11
830.466	5366.63
816.871	5305.74
803.253	5324.53
789.611	5323.89
775.946	5401.26
762.258	5307.26
748.546	5341.26
734.81	5379.37
721.051	5348.68
707.268	5320.74
693.462	5318.16
679.632	5306.37
665.778	5302.68
651.9	5368.21
637.999	5393.32
624.073	5378.89
610.124	5304.16
596.151	5378.42
582.153	5398.05
568.132	5436.21
554.086	5423
540.017	5523.63
525.923	6929.74
511.805	5876.63
497.663	5429.79
483.497	5351.16
469.306	5420.84
455.091	5388.84
440.851	5290.9
426.587	5422.58
412.298	5407.63
397.986	5449.95
383.648	5443.63
369.286	5407.53
354.898	5324.79
340.487	5345.32
326.05	5385.16
311.59	5485.74
297.104	5426.05
282.593	5257.84
268.058	5219.53
253.497	5296.1
238.911	5265.58
224.3	5169.26
209.664	4963.42
195.003	4853.32
180.317	4830.68
165.606	5010.79
150.87	5039.79
136.108	5051.74
121.321	5249.84
106.508	5263.74
91.6705	4841.79
85.3029	3638.05

File: HCS_MoS2_NS_Sodio.txt
3495.35	2350.42
3486.44	3253.21
3477.51	3597.68
3468.57	4029.95
3459.61	4617.58
3450.63	5219.05
3441.64	5688.47
3432.63	6071.89
3423.6	6410
3414.56	6736.37
3405.5	7187.42
3396.42	7662.16
3387.33	8049
3378.22	8344.47
3369.1	8627.16
3359.96	8881.37
3350.8	9276.58
3341.62	9738.9
3332.43	10192
3323.22	10453.4
3314	10611.5
3304.75	10837.2
3295.5	11576.1
3286.22	13389.3
3276.93	16584.3
3267.62	20734.9
3258.29	24645.1
3248.95	27009.1
3239.59	28204.3
3230.21	28971.3
3220.82	29596.5
3211.41	30375.9
3201.98	31579.7
3192.53	33033.4
3183.07	34367.4
3173.59	35709.4
3164.1	37097.8
3154.58	38707.2
3145.05	40239.9
3135.5	41360.4
3125.94	42153.5
3116.36	42951.7
3106.76	43688.3
3097.14	44330.1
3087.5	45089.7
3077.85	46255.2
3068.18	46788.3
3058.5	46756.9
3048.8	46911.9
3039.07	47481.6
3029.34	48345.3
3019.58	49460.6
3009.81	50705.7
3000.01	51898.4
2990.21	52962.2
2980.38	53648.7
2970.54	54302.1
2960.67	54956.7
2950.8	55437.1
2940.9	55732.3
2930.98	56187.6
2921.05	56620.7
2911.1	57074.1
2901.13	57669.9
2891.15	57923.6
2881.15	58384.3
2871.12	58599.8
2861.09	58339.1
2851.03	58205.9
2840.95	57711.5
2830.86	57448.5
2820.75	57454.7
2810.62	57424.4
2800.47	57554.5
2790.31	57941.1
2780.13	58028.1
2769.92	57697.7
2759.71	57267.8
2749.47	56792.2
2739.21	56625.3
2728.94	56576.9
2718.65	55699.7
2708.34	55072.5
2698.01	54592.7
2687.66	54297.7
2677.3	53823.3
2666.91	53292.6
2656.51	52948.5
2646.09	52471.4
2635.65	51897.5
2625.19	51194.3
2614.72	50532.2
2604.22	49598.6
2593.71	49179.3
2583.18	48998.8
2572.63	48632.8
2562.06	47598.3
2551.47	46844.1
2540.86	45765.8
2530.24	44663.4
2519.59	43779.1
2508.93	43033.6
2498.25	41916.4
2487.55	40615.8
2476.83	39255.1
2466.09	38674.8
2455.34	38311.4
2444.56	37650
2433.77	37180.9
2422.95	36940.1
2412.12	36450.2
2401.27	35565.4
2390.4	34906.2
2379.51	34286.4
2368.6	33371.7
2357.67	32565.3
2346.72	32018.5
2335.75	31640
2324.77	30915.8
2313.76	30199.7
2302.74	29580.7
2291.69	29085.7
2280.63	28216.8
2269.55	27449.5
2258.44	26892.4
2247.32	26008.9
2236.18	25192.7
2225.02	24853.7
2213.84	24251.5
2202.64	23681.8
2191.42	23441.6
2180.18	22821.6
2168.92	22031.9
2157.65	21470.7
2146.35	20739.3
2135.03	20146.3
2123.69	19557.4
2112.33	19306.4
2100.96	19054.7
2089.56	18718.7
2078.14	18215
2066.7	17757.2
2055.25	17210.8
2043.77	16749.4
2032.27	16308.9
2020.76	16002.4
2009.22	15552
1997.66	15083.1
1986.09	14521.1
1974.49	14159.3
1962.87	13797.6
1951.23	13418.2
1939.57	12936.5
1927.89	12612.8
1916.2	12135.4
1904.48	11734.8
1892.74	11310.6
1880.98	10980.1
1869.2	10700.3
1857.4	10435.2
1845.57	10088.6
1833.73	9829.16
1821.87	9560.47
1809.99	9216.47
1798.08	8999.68
1786.16	8809.74
1774.21	8678.89
1762.25	8486.05
1750.26	8221.58
1738.25	7976.79
1726.22	7676.74
1714.18	7422.16
1702.11	7251.05
1690.01	7017.95
1677.9	6931.53
1665.77	6764.05
1653.61	6621.16
1641.44	6422.16
1629.24	6383
1617.03	6308
1604.79	6212.16
1592.53	6004.74
1580.25	5786.21
1567.94	5604
1555.62	5424.05
1543.28	5253.63
1530.91	5170.47
1518.52	5129
1506.11	4995.74
1493.68	4898.42
1481.23	4749.37
1468.76	4573.37
1456.26	4461.84
1443.75	4360.32
1431.21	4283.05
1418.65	4223.42
1406.07	4145.1
1393.46	4035.53
1380.84	3967.79
1368.19	3918.84
1355.52	3888.05
1342.83	3873.47
1330.12	3841.42
1317.39	3719.58
1304.63	3610.21
1291.85	3517.32
1279.05	3387.42
1266.23	3283.89
1253.38	3212.16
1240.52	3121.84
1227.63	3004.05
1214.72	2916.21
1201.78	2809.16
1188.83	2753.63
1175.85	2677
1162.85	2599.32
1149.83	2551.11
1136.78	2425.74
1123.71	2341.84
1110.62	2257
1097.51	2178.37
1084.38	2172.53
1071.22	2113
1058.04	2059.74
1044.83	2059.89
1031.61	2007.84
1018.36	1983
1005.09	1975.89
991.793	2033.63
978.477	2091.16
965.136	2067.89
951.773	2024.37
938.387	2054.42
924.978	1977.16
911.545	1939.32
898.09	1937.37
884.612	1956.05
871.11	1962.11
857.585	1938.63
844.037	1925.32
830.466	1908.37
816.871	1859
803.253	1859.63
789.611	1844.11
775.946	1839.47
762.258	1825.79
748.546	1793.74
734.81	1841.84
721.051	1813.95
707.268	1809.26
693.462	1811.16
679.632	1768.16
665.778	1768.89
651.9	1748.95
637.999	1785.53
624.073	1754.16
610.124	1737.84
596.151	1739.05
582.153	1741.89
568.132	1754.89
554.086	1748.26
540.017	1809.26
525.923	2740.47
511.805	2163.42
497.663	1790.79
483.497	1767.37
469.306	1789.79
455.091	1841.68
440.851	1860.63
426.587	1932.84
412.298	1968.32
397.986	2010.21
383.648	2005.21
369.286	2037.79
354.898	2030.05
340.487	2067.68
326.05	2081.79
311.59	2151.84
297.104	2140.37
282.593	2047.26
268.058	2067.32
253.497	2138.63
238.911	2167.84
224.3	2179.42
209.664	2141.74
195.003	2055.47
180.317	2010.74
165.606	2064.58
150.87	2074.58
136.108	2106.58
121.321	2245.11
106.508	2276.68
91.6705	2230.32
85.3029	1722.63

File: MoS2_NS_Sodio.txt
3495.35	98.9474
3486.44	129.368
3477.51	148.421
3468.57	140.053
3459.61	190.053
3450.63	193.316
3441.64	210.895
3432.63	243
3423.6	268.632
3414.56	258.368
3405.5	286.579
3396.42	288.053
3387.33	329.21
3378.22	312.474
3369.1	312.632
3359.96	332.421
3350.8	373.895
3341.62	385.316
3332.43	383.789
3323.22	394.684
3314	424.211
3304.75	408.632
3295.5	444.632
3286.22	493.789
3276.93	625.053
3267.62	784.263
3258.29	913.737
3248.95	1018.63
3239.59	1085.63
3230.21	1091.79
3220.82	1131.05
3211.41	1158.89
3201.98	1184.11
3192.53	1258.16
3183.07	1303.05
3173.59	1365.47
3164.1	1428.89
3154.58	1495.58
3145.05	1520.89
3135.5	1576.21
3125.94	1616.05
3116.36	1631.84
3106.76	1669.47
3097.14	1677.53
3087.5	1708.58
3077.85	1747.26
3068.18	1781.16
3058.5	1779.32
3048.8	1795.79
3039.07	1798.53
3029.34	1826.42
3019.58	1846.37
3009.81	1914.95
3000.01	1956.26
2990.21	1979.53
2980.38	1996.68
2970.54	2026.42
2960.67	2091.79
2950.8	2085.79
2940.9	2098.21
2930.98	2082.32
2921.05	2111.68
2911.1	2105.37
2901.13	2135.63
2891.15	2156.16
2881.15	2150.63
2871.12	2166.37
2861.09	2154.32
2851.03	2141.11
2840.95	2133.89
2830.86	2129
2820.75	2111.84
2810.62	2110.47
2800.47	2137.89
2790.31	2115.16
2780.13	2129.63
2769.92	2112.11
2759.71	2107.53
2749.47	2093.26
2739.21	2086.21
2728.94	2062.68
2718.65	2045.32
2708.34	2044.47
2698.01	2003
2687.66	1947.84
2677.3	1969.32
2666.91	1968.11
2656.51	1926.95
2646.09	1910.84
2635.65	1886
2625.19	1861.79
2614.72	1847.53
2604.22	1817.68
2593.71	1784.32
2583.18	1803.79
2572.63	1788.58
2562.06	1740.05
2551.47	1730.05
2540.86	1663
2530.24	1627.37
2519.59	1599.95
2508.93	1572.84
2498.25	1549.89
2487.55	1475.63
2476.83	1453
2466.09	1452.58
2455.34	1432.11
2444.56	1408
2433.77	1358.11
2422.95	1365.16
2412.12	1362.53
2401.27	1318.63
2390.4	1291.89
2379.51	1302.95
2368.6	1265.47
2357.67	1241.58
2346.72	1221.84
2335.75	1184.63
2324.77	1210.58
2313.76	1168.26
2302.74	1141.89
2291.69	1126.89
2280.63	1105.26
2269.55	1077.11
2258.44	1053.47
2247.32	1022.84
2236.18	1010.05
2225.02	998.316
2213.84	982.842
2202.64	957.263
2191.42	968.368
2180.18	958.789
2168.92	925.316
2157.65	904.368
2146.35	862.737
2135.03	864.105
2123.69	824.895
2112.33	838.737
2100.96	823.579
2089.56	831.474
2078.14	807.474
2066.7	809.263
2055.25	801.421
2043.77	764
2032.27	732.947
2020.76	755.211
2009.22	737.263
1997.66	739.632
1986.09	722.947
1974.49	686.684
1962.87	681.421
1951.23	701.526
1939.57	676.789
1927.89	657
1916.2	659
1904.48	647.842
1892.74	625.316
1880.98	606.789
1869.2	612.737
1857.4	593.105
1845.57	591.789
1833.73	580.789
1821.87	582.368
1809.99	569.368
1798.08	579.895
1786.16	558.053
1774.21	570.316
1762.25	582.368
1750.26	545.421
1738.25	577
1726.22	553.789
1714.18	545.579
1702.11	542.579
1690.01	537.895
1677.9	552.158
1665.77	542.737
1653.61	554.158
1641.44	527.263
1629.24	530.158
1617.03	544.737
1604.79	550.211
1592.53	510.053
1580.25	501.158
1567.94	510.895
1555.62	525.947
1543.28	508.842
1530.91	511.263
1518.52	540.842
1506.11	522.737
1493.68	511.368
1481.23	536.105
1468.76	504.632
1456.26	501.579
1443.75	506.263
1431.21	502.632
1418.65	529.895
1406.07	514.421
1393.46	509.684
1380.84	496.421
1368.19	523.053
1355.52	508.053
1342.83	528.947
1330.12	530.316
1317.39	511.632
1304.63	522.632
1291.85	514.316
1279.05	495.158
1266.23	524.684
1253.38	523.684
1240.52	511
1227.63	526.526
1214.72	516.579
1201.78	524.895
1188.83	527
1175.85	534.053
1162.85	529.211
1149.83	547.895
1136.78	538.789
1123.71	532.263
1110.62	559.053
1097.51	529.789
1084.38	566.105
1071.22	563.895
1058.04	543.895
1044.83	592.368
1031.61	565.737
1018.36	609.789
1005.09	652.211
991.793	1322.79
978.477	744.263
965.136	700
951.773	677.316
938.387	729.895
924.978	728.263
911.545	755.211
898.09	791.526
884.612	839.895
871.11	860.842
857.585	947.105
844.037	1100.53
830.466	1661.95
816.871	2552.32
803.253	1481.32
789.611	1163
775.946	1083.47
762.258	993.158
748.546	972.632
734.81	1034.42
721.051	1028.89
707.268	979.579
693.462	947.105
679.632	964.684
665.778	1112.26
651.9	1018.32
637.999	940.053
624.073	907.263
610.124	876.737
596.151	891.21
582.153	882.526
568.132	894.158
554.086	859.211
540.017	886.947
525.923	1051
511.805	919.421
497.663	918.368
483.497	933.053
469.306	977.789
455.091	1009.42
440.851	982.421
426.587	1060.84
412.298	1146.63
397.986	1134.47
383.648	1266.32
369.286	1334.74
354.898	1244.21
340.487	1405.53
326.05	1338.21
311.59	1388.63
297.104	1573.74
282.593	2362.68
268.058	1570.21
253.497	1404.42
238.911	1499.26
224.3	1373.42
209.664	1321.37
195.003	1356.16
180.317	1168.47
165.606	1273.05
150.87	1961.68
136.108	1522
121.321	2082.95
106.508	1759.58
91.6705	1637.47
85.3029	1279.26