Folder: FINAL_PROJECT_GREEN_HYDROGEN/FTIR/ILUM_29-10-2024 (part 2)

File: SiO2_SH_1.txt
##TITLE=No Description
##DATA TYPE=INFRARED SPECTRUM
##XUNITS=1/CM
##YUNITS=%T
399.452  	37.429
412.384  	35.518
425.316  	36.0855
438.248  	35.1898
451.18  	34.5945
464.112  	38.7808
477.043  	49.3609
489.975  	64.0445
502.907  	73.3461
515.839  	75.0796
528.771  	74.3145
541.703  	72.0494
554.635  	71.2054
567.567  	71.5518
580.499  	73.1333
593.431  	75.219
606.362  	77.3053
619.294  	79.0177
632.226  	79.9344
645.158  	79.1278
658.09  	77.7425
671.022  	74.2207
683.954  	69.8877
696.886  	70.5087
709.818  	75.4526
722.75  	76.373
735.681  	74.5011
748.613  	72.8297
761.545  	71.8004
774.477  	69.0612
787.409  	66.232
800.341  	65.2712
813.273  	68.2179
826.205  	77.7413
839.137  	85.4093
852.069  	85.6153
865.001  	83.3645
877.932  	81.9203
890.864  	80.0977
903.796  	77.459
916.728  	73.6018
929.66  	72.6858
942.592  	71.5284
955.524  	68.639
968.456  	66.3341
981.388  	60.1095
994.32  	48.5269
1007.25  	36.918
1020.18  	28.2708
1033.12  	23.9846
1046.05  	25.7131
1058.98  	28.6744
1071.91  	32.531
1084.84  	35.9591
1097.77  	38.9888
1110.71  	44.0721
1123.64  	47.855
1136.57  	51.9969
1149.5  	57.215
1162.43  	61.518
1175.37  	66.0963
1188.3  	69.9055
1201.23  	78.0121
1214.16  	84.1505
1227.09  	87.881
1240.03  	87.429
1252.96  	89.7611
1265.89  	91.1428
1278.82  	96.0728
1291.75  	96.658
1304.69  	95.5848
1317.62  	97.0829
1330.55  	97.5539
1343.48  	96.0451
1356.41  	97.7264
1369.34  	97.8978
1382.28  	97.8894
1395.21  	96.9822
1408.14  	95.8842
1421.07  	96.586
1434  	96.3725
1446.94  	96.1936
1459.87  	97.226
1472.8  	98.1226
1485.73  	98.3272
1498.66  	98.4347
1511.6  	98.4313
1524.53  	98.4327
1537.46  	98.4959
1550.39  	98.4234
1563.32  	98.377
1576.26  	98.4393
1589.19  	98.0514
1602.12  	97.7643
1615.05  	97.341
1627.98  	97.1727
1640.91  	97.3548
1653.85  	97.6493
1666.78  	97.9019
1679.71  	98.1418
1692.64  	98.3957
1705.57  	98.5095
1718.51  	98.6364
1731.44  	98.6168
1744.37  	98.6795
1757.3  	98.7098
1770.23  	98.7642
1783.17  	98.7423
1796.1  	98.6532
1809.03  	98.7014
1821.96  	98.7418
1834.89  	98.8001
1847.83  	98.6659
1860.76  	98.6954
1873.69  	98.7529
1886.62  	98.9415
1899.55  	98.8949
1912.48  	99.0356
1925.42  	99.2368
1938.35  	99.0891
1951.28  	99.3305
1964.21  	99.6149
1977.14  	99.8298
1990.08  	99.4363
2003.01  	99.8202
2015.94  	99.8657
2028.87  	99.9763
2041.8  	99.4382
2054.74  	99.3534
2067.67  	99.471
2080.6  	99.5215
2093.53  	99.6298
2106.46  	99.3684
2119.39  	99.4747
2132.33  	99.8351
2145.26  	99.868
2158.19  	100.072
2171.12  	99.4809
2184.05  	99.6042
2196.99  	98.9937
2209.92  	99.3967
2222.85  	99.3065
2235.78  	99.4486
2248.71  	99.2606
2261.65  	99.4423
2274.58  	99.1582
2287.51  	99.0606
2300.44  	99.191
2313.37  	98.9793
2326.31  	98.9297
2339.24  	99.0865
2352.17  	98.9112
2365.1  	98.955
2378.03  	99.0837
2390.96  	99.2263
2403.9  	99.1191
2416.83  	99.2712
2429.76  	99.1679
2442.69  	99.1604
2455.62  	99.1698
2468.56  	99.1149
2481.49  	99.113
2494.42  	99.0087
2507.35  	99.0651
2520.28  	98.7895
2533.22  	98.6923
2546.15  	98.4424
2559.08  	98.3122
2572.01  	98.4672
2584.94  	98.7866
2597.88  	98.8207
2610.81  	98.8227
2623.74  	98.8021
2636.67  	98.811
2649.6  	98.7734
2662.53  	98.8556
2675.47  	98.8204
2688.4  	98.8336
2701.33  	98.8509
2714.26  	98.809
2727.19  	98.755
2740.13  	98.735
2753.06  	98.7249
2765.99  	98.6196
2778.92  	98.5636
2791.85  	98.4307
2804.79  	98.3596
2817.72  	98.3155
2830.65  	98.0359
2843.58  	97.4394
2856.51  	96.8566
2869.45  	96.7552
2882.38  	96.3565
2895.31  	96.0384
2908.24  	95.6257
2921.17  	94.3176
2934.1  	93.5548
2947.04  	95.7065
2959.97  	96.0683
2972.9  	96.5459
2985.83  	97.1699
2998.76  	97.544
3011.7  	97.7123
3024.63  	97.6589
3037.56  	97.5627
3050.49  	97.5097
3063.42  	97.4746
3076.36  	97.3537
3089.29  	97.2072
3102.22  	97.1959
3115.15  	97.0111
3128.08  	96.9477
3141.02  	96.9072
3153.95  	96.7461
3166.88  	96.6197
3179.81  	96.47
3192.74  	96.3454
3205.67  	96.1862
3218.61  	96.1622
3231.54  	95.9553
3244.47  	95.8118
3257.4  	95.8567
3270.33  	95.8069
3283.27  	95.7204
3296.2  	95.7021
3309.13  	95.6437
3322.06  	95.5161
3334.99  	95.4553
3347.93  	95.247
3360.86  	95.2646
3373.79  	95.0737
3386.72  	95.179
3399.65  	95.0527
3412.59  	95.0565
3425.52  	95.1381
3438.45  	95.0471
3451.38  	95.2386
3464.31  	95.1796
3477.24  	95.5381
3490.18  	95.5151
3503.11  	95.5823
3516.04  	95.8118
3528.97  	96.0441
3541.9  	96.3667
3554.84  	96.442
3567.77  	96.6091
3580.7  	96.9726
3593.63  	96.9134
3606.56  	97.1113
3619.5  	97.2166
3632.43  	97.2963
3645.36  	97.6034
3658.29  	97.8019
3671.22  	98.2922
3684.15  	98.3909
3697.09  	98.5912
3710.02  	98.6984
3722.95  	98.7731
3735.88  	98.6278
3748.81  	98.6025
3761.75  	98.8841
3774.68  	98.859
3787.61  	98.8569
3800.54  	98.763
3813.47  	98.8789
3826.41  	98.8481
3839.34  	98.7769
3852.27  	98.7709
3865.2  	98.7965
3878.13  	98.7286
3891.07  	98.9119
3904  	98.7489
3916.93  	98.7708
3929.86  	98.8221
3942.79  	98.8469
3955.72  	98.9306
3968.66  	98.8657
3981.59  	98.7868
3994.52  	98.8746
4000.27  	98.8908