Folder: FINAL_PROJECT_GREEN_HYDROGEN/FTIR/ILUM_29-10-2024

Note: README.md
# ESFERAS OCAS HÃBRIDAS DE CARBONO E DISSULFETO DE MOLIBDÃŠNIO SUPORTADAS POR PAPEL PIROLISADO PARA ATIVIDADE CATALÃTICA EM PRODUÃ‡ÃƒO E ARMAZENAMENTO DE HIDROGÃŠNIO VERDE

![NanocompÃ³sito](IMAGENS/HCS@MoS2.png)

**Projeto Final** do curso de **Bacharelado em CiÃªncia e Tecnologia** na **Ilum - Escola de CiÃªncia**, integrada ao **Centro Nacional de Pesquisa em Energia e Materiais (CNPEM)**.

---

## ğŸ“„ Sobre o Projeto


ğŸ” **Objetivo**

Desenvolver eletrocatalisadores heteroestruturados em arquiteturas esfÃ©ricas ocas para a quebra da molÃ©cula da Ã¡gua, visando a produÃ§Ã£o e armazenamento de hidrogÃªnio verde.

âš—ï¸ **Metodologia**

![METODOLOGIA](IMAGENS/METODOLOGIA.png)

ğŸ”¬ **CaracterizaÃ§Ãµes**

- Microscopia de forÃ§a atÃ´mica (AFM)
- Isotermas de adorsÃ£o e dessorÃ§Ã£o de nitrogÃªnio (BET)
- Espalhamento dinÃ¢mico de luz (DLS)
- DifraÃ§Ã£o de raios X (DRX)
- Ensaio eletroquÃ­mico
- Espectroscopia de infravermelho por transformada de Fourier (FTIR)
- Microscopia eletrÃ´nica de varredura (MEV)
- Raman
- AnÃ¡lise termogravimÃ©trica (TGA)
- Espectroscopia de fotoelÃ©trons excitados por raios X (XPS)

## âš™ï¸ Ferramentas Utilizadas

![Python](https://img.shields.io/badge/Python-3.10-blue?logo=python&logoColor=white)
![Jupyter Notebook](https://img.shields.io/badge/Jupyter-Notebook-orange?logo=jupyter&logoColor=white)
![Pandas](https://img.shields.io/badge/Pandas-Data_Analysis-teal?logo=pandas&logoColor=white)
![NumPy](https://img.shields.io/badge/NumPy-Numerical_Computing-lightblue?logo=numpy&logoColor=white)
![Matplotlib](https://img.shields.io/badge/Matplotlib-Visualization-yellow?logo=plotly&logoColor=white)
![SciPy](https://img.shields.io/badge/SciPy-Scientific_Computing-blue?logo=scipy&logoColor=white)
![glob](https://img.shields.io/badge/glob-File_Management-lightgrey?logo=files&logoColor=white)
![Seaborn](https://img.shields.io/badge/Seaborn-Data_Visualization-teal?logo=seaborn&logoColor=white)
![Scikit-Learn](https://img.shields.io/badge/Scikit--Learn-Machine_Learning-orange?logo=scikit-learn&logoColor=white)

## â­ Resultados

![RESULTADOS](IMAGENS/RESULTADOS.png)

---

## ğŸ“Š Estrutura do RepositÃ³rio

ğŸ“‚ [FINAL_PROJECT_GREEN_HYDROGEN/](https://github.com/raphaella220046/FINAL_PROJECT_GREEN_HYDROGEN/tree/main) <br>
â”œâ”€â”€ ğŸ“ [AFM/](https://github.com/raphaella220046/FINAL_PROJECT_GREEN_HYDROGEN/tree/main/AFM) <br>
â”œâ”€â”€ ğŸ“ [BET/](https://github.com/raphaella220046/FINAL_PROJECT_GREEN_HYDROGEN/tree/main/BET) <br>
â”œâ”€â”€ ğŸ“ [DLS/](https://github.com/raphaella220046/FINAL_PROJECT_GREEN_HYDROGEN/tree/main/DLS) <br>
â”œâ”€â”€ ğŸ“ [DLS_MEV/](https://github.com/raphaella220046/FINAL_PROJECT_GREEN_HYDROGEN/tree/main/DLS_MEV) <br>
â”œâ”€â”€ ğŸ“ [DRX/](https://github.com/raphaella220046/FINAL_PROJECT_GREEN_HYDROGEN/tree/main/DRX) <br>
â”œâ”€â”€ ğŸ“ [ENSAIO ELETROQUÃMICO/](https://github.com/raphaella220046/FINAL_PROJECT_GREEN_HYDROGEN/tree/main/ENSAIO%20ELETROQU%C3%8DMICO) <br>
â”œâ”€â”€ ğŸ“ [FTIR/](https://github.com/r

File: HCS_MoS2_1.txt
##TITLE=No Description
##DATA TYPE=INFRARED SPECTRUM
##XUNITS=1/CM
##YUNITS=%T
399.452  	82.013
412.384  	86.384
425.316  	86.4119
438.248  	86.5941
451.18  	86.7701
464.112  	86.792
477.043  	87.1809
489.975  	86.8049
502.907  	86.444
515.839  	86.6467
528.771  	86.4755
541.703  	86.8523
554.635  	86.6608
567.567  	87.1439
580.499  	87.0088
593.431  	87.3052
606.362  	87.2448
619.294  	87.5751
632.226  	87.7243
645.158  	87.9091
658.09  	88.1775
671.022  	88.3604
683.954  	88.6694
696.886  	89.0194
709.818  	89.3093
722.75  	89.4111
735.681  	89.5395
748.613  	89.7515
761.545  	89.7918
774.477  	89.9971
787.409  	90.2926
800.341  	90.36
813.273  	90.5282
826.205  	90.8198
839.137  	91.3004
852.069  	91.7324
865.001  	92.192
877.932  	92.655
890.864  	93.0962
903.796  	93.6937
916.728  	94.028
929.66  	94.3082
942.592  	94.4912
955.524  	94.6097
968.456  	94.6253
981.388  	94.5474
994.32  	94.4038
1007.25  	94.1562
1020.18  	93.7732
1033.12  	93.3767
1046.05  	92.9613
1058.98  	92.6711
1071.91  	92.5264
1084.84  	92.424
1097.77  	92.1767
1110.71  	91.8221
1123.64  	91.2876
1136.57  	90.7578
1149.5  	90.136
1162.43  	89.4532
1175.37  	88.9901
1188.3  	88.535
1201.23  	88.0758
1214.16  	87.6413
1227.09  	87.2768
1240.03  	86.9842
1252.96  	86.8355
1265.89  	86.7429
1278.82  	86.6834
1291.75  	86.6983
1304.69  	86.821
1317.62  	86.8865
1330.55  	87.016
1343.48  	87.042
1356.41  	87.0979
1369.34  	87.2036
1382.28  	87.464
1395.21  	87.8328
1408.14  	88.1247
1421.07  	88.2248
1434  	88.2135
1446.94  	88.2915
1459.87  	88.4256
1472.8  	88.5977
1485.73  	88.6424
1498.66  	88.5308
1511.6  	88.3415
1524.53  	88.1879
1537.46  	87.8758
1550.39  	87.1177
1563.32  	86.4099
1576.26  	85.8916
1589.19  	85.3907
1602.12  	85.3334
1615.05  	85.713
1627.98  	86.6168
1640.91  	87.9475
1653.85  	89.8116
1666.78  	91.1756
1679.71  	92.4172
1692.64  	93.3287
1705.57  	94.2581
1718.51  	95.1741
1731.44  	96.2098
1744.37  	96.8949
1757.3  	97.4132
1770.23  	97.8121
1783.17  	98.124
1796.1  	98.2527
1809.03  	98.4518
1821.96  	98.4796
1834.89  	98.5276
1847.83  	98.5266
1860.76  	98.4983
1873.69  	98.6222
1886.62  	98.6487
1899.55  	98.5486
1912.48  	98.5294
1925.42  	98.5512
1938.35  	98.3318
1951.28  	98.6062
1964.21  	98.77
1977.14  	98.7626
1990.08  	98.7652
2003.01  	98.2332
2015.94  	98.0952
2028.87  	98.268
2041.8  	97.9126
2054.74  	98.3472
2067.67  	98.4363
2080.6  	98.3683
2093.53  	98.4575
2106.46  	98.2396
2119.39  	98.4074
2132.33  	98.0498
2145.26  	98.0821
2158.19  	98.0691
2171.12  	98.2683
2184.05  	98.2505
2196.99  	98.1034
2209.92  	98.1187
2222.85  	97.9385
2235.78  	97.9378
2248.71  	98.3014
2261.65  	98.1281
2274.58  	98.3103
2287.51  	98.4382
2300.44  	98.0951
2313.37  	97.9436
2326.31  	98.1223
2339.24  	98.1014
2352.17  	98.0914
2365.1  	98.2032
2378.03  	98.2645
2390.96  	98.2995
2403.9  	98.1319
2416.83  	98.0526
2429.76  	98.1235
2442.69  	98.0785
2455.62  	98.0962
2468.56  	98.0654
2481.49  	97.9324
2494.42  	97.9196
2507.35  	97.9566
2520.28  	97.8926
2533.22  	97.8131
2546.15  	97.72
2559.08  	97.5701
2572.01  	97.6246
2584.94  	97.5183
2597.88  	97.5902
2610.81  	97.5405
2623.74  	97.5855
2636.67  	97.6113
2649.6  	97.627
2662.53  	97.5619
2675.47  	97.5086
2688.4  	97.5012
2701.33  	97.4842
2714.26  	97.4303
2727.19  	97.4327
2740.13  	97.386
2753.06  	97.3582
2765.99  	97.3425
2778.92  	97.342
2791.85  	97.2755
2804.79  	97.2288
2817.72  	97.1621
2830.65  	97.2056
2843.58  	97.1604
2856.51  	97.2653
2869.45  	97.1283
2882.38  	97.0632
2895.31  	97.0162
2908.24  	96.9625
2921.17  	97.1135
2934.1  	96.8944
2947.04  	96.7262
2959.97  	96.7791
2972.9  	96.6986
2985.83  	96.6514
2998.76  	96.5141
3011.7  	96.4681
3024.63  	96.3015
3037.56  	96.1919
3050.49  	96.0906
3063.42  	96.0193
3076.36  	95.8825
3089.29  	95.7357
3102.22  	95.6758
3115.15  	95.5548
3128.08  	95.4968
3141.02  	95.539
3153.95  	95.3938
3166.88  	95.3084
3179.81  	95.0849
3192.74  	95.0302
3205.67  	94.9735
3218.61  	94.994
3231.54  	94.8609
3244.47  	94.8732
3257.4  	94.7169
3270.33  	94.7718
3283.27  	94.6898
3296.2  	94.7565
3309.13  	94.5788
3322.06  	94.6529
3334.99  	94.6634
3347.93  	94.5129
3360.86  	94.5699
3373.79  	94.5552
3386.72  	94.6275
3399.65  	94.7032
3412.59  	94.6632
3425.52  	94.6525
3438.45  	94.9403
3451.38  	95.1139
3464.31  	95.1311
3477.24  	95.3318
3490.18  	95.4298
3503.11  	95.4128
3516.04  	95.7635
3528.97  	95.6537
3541.9  	96.1234
3554.84  	96.0322
3567.77  	95.966
3580.7  	96.5083
3593.63  	96.6831
3606.56  	96.5507
3619.5  	96.5557
3632.43  	96.8881
3645.36  	97.1448
3658.29  	97.4355
3671.22  	98.0252
3684.15  	98.0768
3697.09  	98.1175
3710.02  	98.1323
3722.95  	97.9022
3735.88  	97.8065
3748.81  	98.2113
3761.75  	98.3187
3774.68  	98.1596
3787.61  	97.9693
3800.54  	98.2443
3813.47  	98.0712
3826.41  	98.0901
3839.34  	97.8651
3852.27  	98.5186
3865.2  	98.421
3878.13  	98.1233
3891.07  	97.9931
3904  	97.9166
3916.93  	98.0097
3929.86  	98.0219
3942.79  	97.9659
3955.72  	98.0485
3968.66  	98.0145
3981.59  	97.9113
3994.52  	97.9394
4000.27  	97.9626

File: MoS2_NS_Amonia_1.txt
##TITLE=No Description
##DATA TYPE=INFRARED SPECTRUM
##XUNITS=1/CM
##YUNITS=%T
399.452  	24.537
412.384  	24.9265
425.316  	25.6425
438.248  	25.2069
451.18  	25.916
464.112  	25.9161
477.043  	26.4413
489.975  	26.9663
502.907  	26.4995
515.839  	26.1047
528.771  	25.3636
541.703  	24.7371
554.635  	24.0451
567.567  	23.4937
580.499  	23.4205
593.431  	23.6252
606.362  	24.0155
619.294  	24.5854
632.226  	24.709
645.158  	25.0395
658.09  	25.092
671.022  	25.7409
683.954  	25.5146
696.886  	25.3786
709.818  	25.5858
722.75  	26.1256
735.681  	26.6586
748.613  	27.0464
761.545  	27.5842
774.477  	28.9236
787.409  	30.4657
800.341  	31.9816
813.273  	33.1515
826.205  	33.3604
839.137  	32.5945
852.069  	31.8778
865.001  	31.4383
877.932  	30.8215
890.864  	28.9697
903.796  	27.6323
916.728  	29.245
929.66  	29.7547
942.592  	29.9421
955.524  	33.6668
968.456  	37.5931
981.388  	39.8703
994.32  	39.7798
1007.25  	37.8148
1020.18  	34.4237
1033.12  	33.7699
1046.05  	36.0816
1058.98  	37.4559
1071.91  	37.2867
1084.84  	35.7914
1097.77  	33.6602
1110.71  	32.5615
1123.64  	33.2138
1136.57  	34.6727
1149.5  	34.9263
1162.43  	34.6666
1175.37  	34.6474
1188.3  	35.5487
1201.23  	37.083
1214.16  	38.7703
1227.09  	39.9735
1240.03  	40.9226
1252.96  	41.7706
1265.89  	42.1076
1278.82  	41.8891
1291.75  	41.27
1304.69  	40.5122
1317.62  	40.0391
1330.55  	39.9401
1343.48  	39.4546
1356.41  	38.7587
1369.34  	37.6298
1382.28  	36.6126
1395.21  	35.4797
1408.14  	34.1449
1421.07  	34.223
1434  	34.937
1446.94  	36.9513
1459.87  	39.3009
1472.8  	40.2641
1485.73  	40.3707
1498.66  	40.4153
1511.6  	39.9063
1524.53  	39.2372
1537.46  	37.9639
1550.39  	37.6896
1563.32  	36.4573
1576.26  	35.3211
1589.19  	34.7435
1602.12  	34.5099
1615.05  	34.6143
1627.98  	36.1534
1640.91  	37.3142
1653.85  	39.0691
1666.78  	38.8362
1679.71  	39.9038
1692.64  	40.5025
1705.57  	40.901
1718.51  	41.6744
1731.44  	41.5788
1744.37  	41.6174
1757.3  	41.4317
1770.23  	40.8835
1783.17  	40.9127
1796.1  	40.682
1809.03  	40.3568
1821.96  	40.2871
1834.89  	40.0579
1847.83  	40.0079
1860.76  	39.8382
1873.69  	39.7811
1886.62  	39.6056
1899.55  	39.6686
1912.48  	39.4668
1925.42  	39.6141
1938.35  	39.5727
1951.28  	39.6841
1964.21  	40.3337
1977.14  	40.732
1990.08  	39.9683
2003.01  	40.1345
2015.94  	40.6295
2028.87  	41.36
2041.8  	40.1282
2054.74  	39.4946
2067.67  	39.0026
2080.6  	38.7713
2093.53  	38.5054
2106.46  	38.3457
2119.39  	38.0951
2132.33  	38.3354
2145.26  	38.7789
2158.19  	40.0622
2171.12  	39.3235
2184.05  	39.3457
2196.99  	38.6272
2209.92  	38.3948
2222.85  	38.2167
2235.78  	37.9574
2248.71  	37.5617
2261.65  	37.3846
2274.58  	37.0987
2287.51  	36.8834
2300.44  	36.5612
2313.37  	36.3351
2326.31  	36.1909
2339.24  	36.0623
2352.17  	35.8406
2365.1  	36.0295
2378.03  	36.1186
2390.96  	35.9702
2403.9  	35.9627
2416.83  	35.8196
2429.76  	35.7099
2442.69  	35.685
2455.62  	35.5972
2468.56  	35.4713
2481.49  	35.5189
2494.42  	35.3713
2507.35  	35.2306
2520.28  	35.2097
2533.22  	35.1206
2546.15  	35.0607
2559.08  	34.935
2572.01  	34.8777
2584.94  	34.8524
2597.88  	34.7415
2610.81  	34.6906
2623.74  	34.5597
2636.67  	34.4405
2649.6  	34.2991
2662.53  	34.1426
2675.47  	34.0297
2688.4  	33.8634
2701.33  	33.7262
2714.26  	33.6195
2727.19  	33.514
2740.13  	33.4094
2753.06  	33.2795
2765.99  	33.152
2778.92  	33.0319
2791.85  	32.9091
2804.79  	32.8159
2817.72  	32.7185
2830.65  	32.6022
2843.58  	32.548
2856.51  	32.5605
2869.45  	32.5033
2882.38  	32.4775
2895.31  	32.4549
2908.24  	32.3741
2921.17  	32.3314
2934.1  	32.3299
2947.04  	32.2699
2959.97  	32.1834
2972.9  	32.1907
2985.83  	32.1937
2998.76  	32.2783
3011.7  	32.225
3024.63  	32.1706
3037.56  	32.2101
3050.49  	32.2275
3063.42  	32.321
3076.36  	32.4316
3089.29  	32.5074
3102.22  	32.5757
3115.15  	32.5997
3128.08  	32.596
3141.02  	32.5322
3153.95  	32.5326
3166.88  	32.4556
3179.81  	32.5984
3192.74  	32.7094
3205.67  	32.8168
3218.61  	33.0506
3231.54  	33.3399
3244.47  	33.5798
3257.4  	33.916
3270.33  	34.0673
3283.27  	34.2989
3296.2  	34.4457
3309.13  	34.4157
3322.06  	34.4697
3334.99  	34.5164
3347.93  	34.5554
3360.86  	34.6048
3373.79  	34.5223
3386.72  	34.6101
3399.65  	34.7489
3412.59  	34.6869
3425.52  	34.8869
3438.45  	35.0866
3451.38  	35.1103
3464.31  	35.3357
3477.24  	35.5714
3490.18  	35.6088
3503.11  	35.6976
3516.04  	35.8513
3528.97  	36.1246
3541.9  	36.1145
3554.84  	36.3665
3567.77  	36.5254
3580.7  	36.7554
3593.63  	37.0071
3606.56  	37.0871
3619.5  	37.4514
3632.43  	38.049
3645.36  	37.5538
3658.29  	38.4024
3671.22  	38.1349
3684.15  	37.5849
3697.09  	37.5339
3710.02  	37.0169
3722.95  	37.1355
3735.88  	37.001
3748.81  	36.2421
3761.75  	37.1274
3774.68  	36.8457
3787.61  	36.8158
3800.54  	35.7724
3813.47  	36.2807
3826.41  	36.3435
3839.34  	36.4895
3852.27  	35.168
3865.2  	36.3174
3878.13  	36.1439
3891.07  	36.0658
3904  	36.1801
3916.93  	36.1411
3929.86  	36.132
3942.79  	36.1552
3955.72  	36.2214
3968.66  	36.0958
3981.59  	36.1026
3994.52  	36.096
4000.27  	36.088

File: MoS2_NS_Sodio_1.txt
##TITLE=No Description
##DATA TYPE=INFRARED SPECTRUM
##XUNITS=1/CM
##YUNITS=%T
399.452  	30.8336
412.384  	31.5957
425.316  	31.8553
438.248  	32.4149
451.18  	32.4404
464.112  	33.3083
477.043  	33.4411
489.975  	34.3184
502.907  	34.0546
515.839  	34.0365
528.771  	34.1813
541.703  	34.3013
554.635  	34.3948
567.567  	34.4919
580.499  	35.0044
593.431  	35.429
606.362  	35.5721
619.294  	35.6099
632.226  	36.2471
645.158  	37.1152
658.09  	37.6051
671.022  	37.8955
683.954  	38.2588
696.886  	38.4516
709.818  	38.7673
722.75  	39.2513
735.681  	39.8097
748.613  	40.2958
761.545  	40.5478
774.477  	41.1121
787.409  	41.6893
800.341  	41.9044
813.273  	42.2821
826.205  	43.3115
839.137  	43.3981
852.069  	42.9663
865.001  	42.5234
877.932  	42.3554
890.864  	42.0104
903.796  	41.4059
916.728  	41.3887
929.66  	41.4545
942.592  	41.9156
955.524  	45.0475
968.456  	48.0197
981.388  	48.792
994.32  	48.1102
1007.25  	46.9044
1020.18  	44.8235
1033.12  	45.8123
1046.05  	45.1642
1058.98  	45.3711
1071.91  	44.4008
1084.84  	43.6374
1097.77  	43.2777
1110.71  	43.3517
1123.64  	43.8085
1136.57  	44.4621
1149.5  	44.3596
1162.43  	44.1265
1175.37  	43.9591
1188.3  	43.3432
1201.23  	42.9472
1214.16  	42.8639
1227.09  	42.8456
1240.03  	42.7358
1252.96  	42.9137
1265.89  	43.0183
1278.82  	42.902
1291.75  	42.5705
1304.69  	42.5756
1317.62  	42.5439
1330.55  	42.4483
1343.48  	42.3121
1356.41  	42.0589
1369.34  	41.7131
1382.28  	41.9795
1395.21  	42.1668
1408.14  	41.6724
1421.07  	41.5574
1434  	41.9067
1446.94  	42.2672
1459.87  	43.2888
1472.8  	43.8209
1485.73  	43.9433
1498.66  	43.5473
1511.6  	42.9335
1524.53  	42.2968
1537.46  	41.4518
1550.39  	40.5563
1563.32  	39.3922
1576.26  	38.5746
1589.19  	37.8466
1602.12  	37.2251
1615.05  	37.5386
1627.98  	39.005
1640.91  	40.6913
1653.85  	42.9329
1666.78  	44.4988
1679.71  	46.1101
1692.64  	47.1822
1705.57  	47.5514
1718.51  	47.9455
1731.44  	48.0643
1744.37  	47.9418
1757.3  	47.7627
1770.23  	47.5224
1783.17  	47.2708
1796.1  	46.9612
1809.03  	46.7791
1821.96  	46.6277
1834.89  	46.4479
1847.83  	46.3247
1860.76  	46.1541
1873.69  	46.0076
1886.62  	45.9824
1899.55  	45.9084
1912.48  	45.6466
1925.42  	45.6715
1938.35  	45.8028
1951.28  	45.8709
1964.21  	46.3996
1977.14  	46.7335
1990.08  	46.1407
2003.01  	46.1787
2015.94  	46.3655
2028.87  	46.4455
2041.8  	46.0847
2054.74  	45.2479
2067.67  	44.955
2080.6  	44.6675
2093.53  	44.6966
2106.46  	44.4122
2119.39  	44.2605
2132.33  	44.3945
2145.26  	45.0273
2158.19  	46.2128
2171.12  	45.4037
2184.05  	45.1295
2196.99  	44.3703
2209.92  	44.3137
2222.85  	44.0664
2235.78  	43.849
2248.71  	43.573
2261.65  	43.3945
2274.58  	43.2654
2287.51  	42.905
2300.44  	42.7399
2313.37  	42.576
2326.31  	42.4156
2339.24  	42.4192
2352.17  	42.2188
2365.1  	42.2497
2378.03  	42.2853
2390.96  	42.2053
2403.9  	42.2018
2416.83  	42.1288
2429.76  	42.0417
2442.69  	41.9473
2455.62  	41.8956
2468.56  	41.8124
2481.49  	41.7602
2494.42  	41.751
2507.35  	41.5679
2520.28  	41.4577
2533.22  	41.4528
2546.15  	41.3778
2559.08  	41.2428
2572.01  	41.2166
2584.94  	41.1376
2597.88  	40.9472
2610.81  	40.8761
2623.74  	40.7935
2636.67  	40.6687
2649.6  	40.5754
2662.53  	40.4988
2675.47  	40.3687
2688.4  	40.3097
2701.33  	40.2167
2714.26  	40.1287
2727.19  	40.0579
2740.13  	39.9799
2753.06  	39.8931
2765.99  	39.7878
2778.92  	39.7036
2791.85  	39.5736
2804.79  	39.4807
2817.72  	39.3879
2830.65  	39.336
2843.58  	39.2258
2856.51  	39.2563
2869.45  	39.1382
2882.38  	39.0574
2895.31  	38.9662
2908.24  	38.9698
2921.17  	38.904
2934.1  	38.9421
2947.04  	38.8806
2959.97  	38.6853
2972.9  	38.7321
2985.83  	39.0049
2998.76  	38.9512
3011.7  	38.8253
3024.63  	38.7621
3037.56  	38.7333
3050.49  	38.6945
3063.42  	38.6868
3076.36  	38.6079
3089.29  	38.4955
3102.22  	38.5228
3115.15  	38.4769
3128.08  	38.4147
3141.02  	38.3533
3153.95  	38.2469
3166.88  	38.1758
3179.81  	38.1384
3192.74  	38.1724
3205.67  	38.2629
3218.61  	38.3745
3231.54  	38.6018
3244.47  	38.7497
3257.4  	38.8027
3270.33  	38.8713
3283.27  	38.9211
3296.2  	38.9561
3309.13  	38.8055
3322.06  	38.8718
3334.99  	38.7681
3347.93  	38.6819
3360.86  	38.7235
3373.79  	38.8302
3386.72  	39.0342
3399.65  	38.9701
3412.59  	39.1713
3425.52  	39.2933
3438.45  	39.5446
3451.38  	39.6264
3464.31  	39.9034
3477.24  	40.1079
3490.18  	40.3286
3503.11  	40.3521
3516.04  	40.6316
3528.97  	40.8885
3541.9  	41.053
3554.84  	41.2957
3567.77  	41.4645
3580.7  	41.7876
3593.63  	42.0644
3606.56  	42.4459
3619.5  	42.7375
3632.43  	43.0268
3645.36  	43.1231
3658.29  	43.0956
3671.22  	43.0794
3684.15  	42.7445
3697.09  	42.6297
3710.02  	42.5076
3722.95  	42.3677
3735.88  	41.9988
3748.81  	42.1402
3761.75  	42.1152
3774.68  	41.9901
3787.61  	41.7722
3800.54  	41.7927
3813.47  	41.7054
3826.41  	41.6442
3839.34  	41.639
3852.27  	41.4746
3865.2  	41.533
3878.13  	41.4428
3891.07  	41.3882
3904  	41.4415
3916.93  	41.357
3929.86  	41.2406
3942.79  	41.2543
3955.72  	41.2451
3968.66  	41.235
3981.59  	41.262
3994.52  	41.1771
4000.27  	41.1958

File: Silica_S7_1.txt
##TITLE=No Description
##DATA TYPE=INFRARED SPECTRUM
##XUNITS=1/CM
##YUNITS=%T
399.452  	35.6277
412.384  	27.4191
425.316  	22.6141
438.248  	19.9987
451.18  	19.5596
464.112  	25.6436
477.043  	39.3188
489.975  	58.3115
502.907  	68.2117
515.839  	71.1792
528.771  	71.2934
541.703  	71.1591
554.635  	71.5785
567.567  	72.4274
580.499  	74.4549
593.431  	76.3637
606.362  	78.0955
619.294  	79.2916
632.226  	79.9504
645.158  	80.4348
658.09  	80.8461
671.022  	81.1516
683.954  	81.3487
696.886  	81.3327
709.818  	81.2819
722.75  	81.1576
735.681  	80.8631
748.613  	80.5692
761.545  	80.1577
774.477  	76.6005
787.409  	70.4796
800.341  	69.9597
813.273  	73.407
826.205  	78.8155
839.137  	84.4002
852.069  	87.2275
865.001  	87.5052
877.932  	86.7854
890.864  	84.5724
903.796  	80.8528
916.728  	76.3418
929.66  	71.9241
942.592  	69.3664
955.524  	69.3911
968.456  	72.1127
981.388  	77.0419
994.32  	79.1173
1007.25  	69.9531
1020.18  	49.6557
1033.12  	28.0608
1046.05  	17.4488
1058.98  	15.375
1071.91  	17.2686
1084.84  	20.972
1097.77  	27.7337
1110.71  	42.015
1123.64  	53.3903
1136.57  	57.2749
1149.5  	59.5441
1162.43  	61.5398
1175.37  	64.0594
1188.3  	66.9198
1201.23  	69.8862
1214.16  	73.1556
1227.09  	77.0678
1240.03  	82.1822
1252.96  	88.6156
1265.89  	93.1376
1278.82  	94.9712
1291.75  	95.86
1304.69  	96.3777
1317.62  	96.6728
1330.55  	96.9081
1343.48  	97.0649
1356.41  	97.2224
1369.34  	97.3071
1382.28  	97.3738
1395.21  	97.4069
1408.14  	97.4224
1421.07  	97.4027
1434  	97.4804
1446.94  	97.4978
1459.87  	97.5038
1472.8  	97.6588
1485.73  	97.6214
1498.66  	97.5562
1511.6  	97.5183
1524.53  	97.4701
1537.46  	97.638
1550.39  	97.5249
1563.32  	97.406
1576.26  	97.5633
1589.19  	97.0923
1602.12  	96.5064
1615.05  	95.6753
1627.98  	95.0522
1640.91  	95.2681
1653.85  	95.7658
1666.78  	96.2061
1679.71  	96.8359
1692.64  	97.3343
1705.57  	97.6222
1718.51  	97.7778
1731.44  	98.0065
1744.37  	98.0644
1757.3  	98.1065
1770.23  	98.1827
1783.17  	98.1672
1796.1  	98.0879
1809.03  	98.2636
1821.96  	98.1753
1834.89  	98.1231
1847.83  	98.0431
1860.76  	97.9565
1873.69  	97.92
1886.62  	98.0336
1899.55  	98.3878
1912.48  	98.2517
1925.42  	98.3982
1938.35  	98.3371
1951.28  	98.7129
1964.21  	98.9375
1977.14  	98.5452
1990.08  	98.6314
2003.01  	98.8853
2015.94  	98.8504
2028.87  	99.4332
2041.8  	99.5629
2054.74  	98.887
2067.67  	99.2205
2080.6  	98.9642
2093.53  	99.0358
2106.46  	98.8935
2119.39  	98.9621
2132.33  	99.0608
2145.26  	99.2413
2158.19  	99.5247
2171.12  	99.0787
2184.05  	99.1569
2196.99  	99.2599
2209.92  	99.1058
2222.85  	99.1873
2235.78  	99.4411
2248.71  	99.0711
2261.65  	99.1971
2274.58  	99.1578
2287.51  	98.8996
2300.44  	98.8547
2313.37  	98.7456
2326.31  	98.7318
2339.24  	98.8912
2352.17  	98.7614
2365.1  	98.8517
2378.03  	98.7708
2390.96  	98.9695
2403.9  	99.058
2416.83  	99.0405
2429.76  	98.9199
2442.69  	99.0725
2455.62  	99.0249
2468.56  	99.0219
2481.49  	99.0465
2494.42  	99.0059
2507.35  	99.207
2520.28  	98.9783
2533.22  	99.06
2546.15  	99.0487
2559.08  	99.1845
2572.01  	99.145
2584.94  	99.2259
2597.88  	99.2837
2610.81  	99.2857
2623.74  	99.1334
2636.67  	99.1297
2649.6  	99.0367
2662.53  	99.0211
2675.47  	98.9654
2688.4  	98.909
2701.33  	98.8686
2714.26  	98.7637
2727.19  	98.6847
2740.13  	98.7048
2753.06  	98.5979
2765.99  	98.5813
2778.92  	98.49
2791.85  	98.45
2804.79  	98.4295
2817.72  	98.3192
2830.65  	98.2617
2843.58  	98.1031
2856.51  	98.0995
2869.45  	97.928
2882.38  	97.8438
2895.31  	97.7467
2908.24  	97.6989
2921.17  	97.5702
2934.1  	97.379
2947.04  	97.2584
2959.97  	97.1551
2972.9  	97.002
2985.83  	96.8237
2998.76  	96.7682
3011.7  	96.5468
3024.63  	96.4398
3037.56  	96.2846
3050.49  	96.0329
3063.42  	95.8938
3076.36  	95.7205
3089.29  	95.5305
3102.22  	95.4635
3115.15  	95.322
3128.08  	95.0092
3141.02  	94.829
3153.95  	94.5762
3166.88  	94.4739
3179.81  	94.2831
3192.74  	93.9921
3205.67  	93.8854
3218.61  	93.6942
3231.54  	93.6301
3244.47  	93.3838
3257.4  	93.3894
3270.33  	93.3927
3283.27  	93.4517
3296.2  	93.4531
3309.13  	93.3308
3322.06  	93.375
3334.99  	93.3914
3347.93  	93.2434
3360.86  	93.3724
3373.79  	93.359
3386.72  	93.1569
3399.65  	93.2612
3412.59  	93.3348
3425.52  	93.6161
3438.45  	93.7151
3451.38  	93.8325
3464.31  	94.3015
3477.24  	94.3924
3490.18  	94.715
3503.11  	95.1182
3516.04  	95.4358
3528.97  	95.6167
3541.9  	96.0721
3554.84  	96.4239
3567.77  	96.6471
3580.7  	96.9499
3593.63  	97.0489
3606.56  	97.4442
3619.5  	97.5177
3632.43  	97.6992
3645.36  	98.1413
3658.29  	98.4769
3671.22  	99.0669
3684.15  	99.4326
3697.09  	99.5233
3710.02  	99.7288
3722.95  	99.8988
3735.88  	99.5724
3748.81  	99.8204
3761.75  	99.9919
3774.68  	100.198
3787.61  	100.192
3800.54  	99.9494
3813.47  	100.058
3826.41  	100.122
3839.34  	99.8834
3852.27  	100.342
3865.2  	100.185
3878.13  	100.274
3891.07  	100.194
3904  	99.9612
3916.93  	100.34
3929.86  	100.353
3942.79  	100.371
3955.72  	100.319
3968.66  	100.326
3981.59  	100.334
3994.52  	100.3
4000.27  	100.372