Folder: FINAL_PROJECT_GREEN_HYDROGEN/FTIR/LNB_28-10-2024

Note: README.md
# ESFERAS OCAS HÃBRIDAS DE CARBONO E DISSULFETO DE MOLIBDÃŠNIO SUPORTADAS POR PAPEL PIROLISADO PARA ATIVIDADE CATALÃTICA EM PRODUÃ‡ÃƒO E ARMAZENAMENTO DE HIDROGÃŠNIO VERDE

![NanocompÃ³sito](IMAGENS/HCS@MoS2.png)

**Projeto Final** do curso de **Bacharelado em CiÃªncia e Tecnologia** na **Ilum - Escola de CiÃªncia**, integrada ao **Centro Nacional de Pesquisa em Energia e Materiais (CNPEM)**.

---

## ğŸ“„ Sobre o Projeto


ğŸ” **Objetivo**

Desenvolver eletrocatalisadores heteroestruturados em arquiteturas esfÃ©ricas ocas para a quebra da molÃ©cula da Ã¡gua, visando a produÃ§Ã£o e armazenamento de hidrogÃªnio verde.

âš—ï¸ **Metodologia**

![METODOLOGIA](IMAGENS/METODOLOGIA.png)

ğŸ”¬ **CaracterizaÃ§Ãµes**

- Microscopia de forÃ§a atÃ´mica (AFM)
- Isotermas de adorsÃ£o e dessorÃ§Ã£o de nitrogÃªnio (BET)
- Espalhamento dinÃ¢mico de luz (DLS)
- DifraÃ§Ã£o de raios X (DRX)
- Ensaio eletroquÃ­mico
- Espectroscopia de infravermelho por transformada de Fourier (FTIR)
- Microscopia eletrÃ´nica de varredura (MEV)
- Raman
- AnÃ¡lise termogravimÃ©trica (TGA)
- Espectroscopia de fotoelÃ©trons excitados por raios X (XPS)

## âš™ï¸ Ferramentas Utilizadas

![Python](https://img.shields.io/badge/Python-3.10-blue?logo=python&logoColor=white)
![Jupyter Notebook](https://img.shields.io/badge/Jupyter-Notebook-orange?logo=jupyter&logoColor=white)
![Pandas](https://img.shields.io/badge/Pandas-Data_Analysis-teal?logo=pandas&logoColor=white)
![NumPy](https://img.shields.io/badge/NumPy-Numerical_Computing-lightblue?logo=numpy&logoColor=white)
![Matplotlib](https://img.shields.io/badge/Matplotlib-Visualization-yellow?logo=plotly&logoColor=white)
![SciPy](https://img.shields.io/badge/SciPy-Scientific_Computing-blue?logo=scipy&logoColor=white)
![glob](https://img.shields.io/badge/glob-File_Management-lightgrey?logo=files&logoColor=white)
![Seaborn](https://img.shields.io/badge/Seaborn-Data_Visualization-teal?logo=seaborn&logoColor=white)
![Scikit-Learn](https://img.shields.io/badge/Scikit--Learn-Machine_Learning-orange?logo=scikit-learn&logoColor=white)

## â­ Resultados

![RESULTADOS](IMAGENS/RESULTADOS.png)

---

## ğŸ“Š Estrutura do RepositÃ³rio

ğŸ“‚ [FINAL_PROJECT_GREEN_HYDROGEN/](https://github.com/raphaella220046/FINAL_PROJECT_GREEN_HYDROGEN/tree/main) <br>
â”œâ”€â”€ ğŸ“ [AFM/](https://github.com/raphaella220046/FINAL_PROJECT_GREEN_HYDROGEN/tree/main/AFM) <br>
â”œâ”€â”€ ğŸ“ [BET/](https://github.com/raphaella220046/FINAL_PROJECT_GREEN_HYDROGEN/tree/main/BET) <br>
â”œâ”€â”€ ğŸ“ [DLS/](https://github.com/raphaella220046/FINAL_PROJECT_GREEN_HYDROGEN/tree/main/DLS) <br>
â”œâ”€â”€ ğŸ“ [DLS_MEV/](https://github.com/raphaella220046/FINAL_PROJECT_GREEN_HYDROGEN/tree/main/DLS_MEV) <br>
â”œâ”€â”€ ğŸ“ [DRX/](https://github.com/raphaella220046/FINAL_PROJECT_GREEN_HYDROGEN/tree/main/DRX) <br>
â”œâ”€â”€ ğŸ“ [ENSAIO ELETROQUÃMICO/](https://github.com/raphaella220046/FINAL_PROJECT_GREEN_HYDROGEN/tree/main/ENSAIO%20ELETROQU%C3%8DMICO) <br>
â”œâ”€â”€ ğŸ“ [FTIR/](https://github.com/r

File: HCS-MoS2.csv
Criado como novo conjunto de dados;Amostra 021 por Analyst data segunda-feira, outubro 28 2024
cm-1;%T
4000,00;100,67
3988,00;100,68
3976,00;100,68
3964,00;100,68
3952,00;100,69
3940,00;100,71
3928,00;100,72
3916,00;100,74
3904,00;100,74
3892,00;100,76
3880,00;100,80
3868,00;100,80
3856,00;100,81
3844,00;100,80
3832,00;100,85
3820,00;100,84
3808,00;100,82
3796,00;100,87
3784,00;100,83
3772,00;100,83
3760,00;100,84
3748,00;100,88
3736,00;100,85
3724,00;100,86
3712,00;100,82
3700,00;100,79
3688,00;100,76
3676,00;100,61
3664,00;100,25
3652,00;99,86
3640,00;99,41
3628,00;99,13
3616,00;98,92
3604,00;98,72
3592,00;98,55
3580,00;98,37
3568,00;98,18
3556,00;97,93
3544,00;97,70
3532,00;97,49
3520,00;97,28
3508,00;97,07
3496,00;96,87
3484,00;96,67
3472,00;96,46
3460,00;96,23
3448,00;96,00
3436,00;95,77
3424,00;95,59
3412,00;95,46
3400,00;95,38
3388,00;95,29
3376,00;95,26
3364,00;95,26
3352,00;95,32
3340,00;95,38
3328,00;95,44
3316,00;95,49
3304,00;95,64
3292,00;95,70
3280,00;95,66
3268,00;95,73
3256,00;95,76
3244,00;95,77
3232,00;95,84
3220,00;95,81
3208,00;95,87
3196,00;95,95
3184,00;96,07
3172,00;96,19
3160,00;96,30
3148,00;96,43
3136,00;96,55
3124,00;96,64
3112,00;96,78
3100,00;96,91
3088,00;97,06
3076,00;97,18
3064,00;97,30
3052,00;97,50
3040,00;97,69
3028,00;97,80
3016,00;98,03
3004,00;98,06
2992,00;98,18
2980,00;98,22
2968,00;98,12
2956,00;98,16
2944,00;98,30
2932,00;98,28
2920,00;98,34
2908,00;98,46
2896,00;98,56
2884,00;98,58
2872,00;98,69
2860,00;98,73
2848,00;98,80
2836,00;98,91
2824,00;98,95
2812,00;99,01
2800,00;99,08
2788,00;99,14
2776,00;99,17
2764,00;99,18
2752,00;99,23
2740,00;99,26
2728,00;99,31
2716,00;99,35
2704,00;99,38
2692,00;99,43
2680,00;99,48
2668,00;99,49
2656,00;99,44
2644,00;99,48
2632,00;99,55
2620,00;99,61
2608,00;99,68
2596,00;99,75
2584,00;99,82
2572,00;99,89
2560,00;99,95
2548,00;100,01
2536,00;100,08
2524,00;100,14
2512,00;100,18
2500,00;100,23
2488,00;100,28
2476,00;100,34
2464,00;100,38
2452,00;100,38
2440,00;100,46
2428,00;100,53
2416,00;100,58
2404,00;100,66
2392,00;100,68
2380,00;100,71
2368,00;100,72
2356,00;100,74
2344,00;100,61
2332,00;100,71
2320,00;100,51
2308,00;100,66
2296,00;100,61
2284,00;100,52
2272,00;100,69
2260,00;100,77
2248,00;100,83
2236,00;100,78
2224,00;100,76
2212,00;100,81
2200,00;100,82
2188,00;100,81
2176,00;101,02
2164,00;100,68
2152,00;101,57
2140,00;101,39
2128,00;101,34
2116,00;101,00
2104,00;100,96
2092,00;101,10
2080,00;100,91
2068,00;100,99
2056,00;100,97
2044,00;101,04
2032,00;101,27
2020,00;101,33
2008,00;101,33
1996,00;101,22
1984,00;101,05
1972,00;101,47
1960,00;101,46
1948,00;101,31
1936,00;101,26
1924,00;101,19
1912,00;101,11
1900,00;101,11
1888,00;101,10
1876,00;101,05
1864,00;101,03
1852,00;100,98
1840,00;100,96
1828,00;100,91
1816,00;100,88
1804,00;100,63
1792,00;100,48
1780,00;100,15
1768,00;99,69
1756,00;99,09
1744,00;98,34
1732,00;97,32
1720,00;95,74
1708,00;94,40
1696,00;93,19
1684,00;91,95
1672,00;90,30
1660,00;88,27
1648,00;86,14
1636,00;83,97
1624,00;82,10
1612,00;80,85
1600,00;80,28
1588,00;80,29
1576,00;80,82
1564,00;81,81
1552,00;82,93
1540,00;83,80
1528,00;84,54
1516,00;84,90
1504,00;85,06
1492,00;85,13
1480,00;85,04
1468,00;84,74
1456,00;84,49
1444,00;84,44
1432,00;84,35
1420,00;84,31
1408,00;84,14
1396,00;83,76
1384,00;83,15
1372,00;82,73
1360,00;82,57
1348,00;82,47
1336,00;82,39
1324,00;82,34
1312,00;82,19
1300,00;82,03
1288,00;81,92
1276,00;81,91
1264,00;81,99
1252,00;82,09
1240,00;82,26
1228,00;82,56
1216,00;83,04
1204,00;83,66
1192,00;84,32
1180,00;84,94
1168,00;85,51
1156,00;86,20
1144,00;87,10
1132,00;87,96
1120,00;88,74
1108,00;89,44
1096,00;90,01
1084,00;90,28
1072,00;90,37
1060,00;90,51
1048,00;90,89
1036,00;91,52
1024,00;92,18
1012,00;92,81
1000,00;93,27
988,00;93,61
976,00;93,82
964,00;93,94
952,00;93,97
940,00;93,89
928,00;93,64
916,00;93,18
904,00;92,55
892,00;91,82
880,00;91,12
868,00;90,44
856,00;89,77
844,00;89,09
832,00;88,40
820,00;88,00
808,00;87,73
796,00;87,50
784,00;87,26
772,00;86,96
760,00;86,68
748,00;86,54
736,00;86,54
724,00;86,33
712,00;86,09
700,00;85,82
688,00;85,46
676,00;85,13
664,00;84,77
652,00;84,40
640,00;84,06
628,00;83,71
616,00;83,48
604,00;83,25
592,00;83,04
580,00;82,93
568,00;82,73
556,00;82,50
544,00;82,36
532,00;82,32
520,00;82,36
508,00;82,16
500,00;81,81

File: MoS2 pristine.csv
Criado como novo conjunto de dados;Amostra 001 por Analyst data segunda-feira, outubro 28 2024
cm-1;%T
4000,00;25,19
3988,00;25,05
3976,00;27,16
3964,00;24,47
3952,00;26,55
3940,00;26,38
3928,00;24,80
3916,00;27,40
3904,00;25,64
3892,00;26,00
3880,00;27,25
3868,00;25,09
3856,00;27,85
3844,00;26,35
3832,00;25,53
3820,00;28,20
3808,00;25,15
3796,00;26,91
3784,00;27,08
3772,00;25,13
3760,00;28,04
3748,00;26,65
3736,00;26,69
3724,00;27,80
3712,00;25,54
3700,00;27,39
3688,00;26,72
3676,00;26,04
3664,00;27,89
3652,00;25,95
3640,00;26,73
3628,00;27,12
3616,00;25,27
3604,00;27,54
3592,00;25,65
3580,00;25,56
3568,00;27,73
3556,00;24,53
3544,00;26,84
3532,00;26,04
3520,00;24,68
3508,00;27,15
3496,00;24,62
3484,00;25,75
3472,00;26,39
3460,00;24,09
3448,00;26,68
3436,00;25,02
3424,00;24,77
3412,00;26,60
3400,00;24,01
3388,00;25,93
3376,00;25,60
3364,00;24,10
3352,00;26,60
3340,00;24,36
3328,00;25,18
3316,00;26,15
3304,00;23,78
3292,00;26,26
3280,00;24,94
3268,00;24,39
3256,00;26,45
3244,00;23,89
3232,00;25,62
3220,00;25,61
3208,00;23,87
3196,00;26,42
3184,00;24,38
3172,00;24,92
3160,00;26,19
3148,00;23,77
3136,00;26,13
3124,00;25,18
3112,00;24,36
3100,00;26,58
3088,00;24,10
3076,00;25,60
3064,00;25,90
3052,00;23,98
3040,00;26,53
3028,00;24,70
3016,00;24,99
3004,00;26,48
2992,00;24,01
2980,00;26,24
2968,00;25,51
2956,00;24,39
2944,00;26,75
2932,00;24,39
2920,00;25,57
2908,00;26,13
2896,00;24,09
2884,00;26,65
2872,00;25,06
2860,00;25,03
2848,00;26,72
2836,00;24,22
2824,00;26,32
2812,00;25,90
2800,00;24,58
2788,00;27,04
2776,00;24,79
2764,00;25,78
2752,00;26,66
2740,00;24,41
2728,00;26,93
2716,00;25,53
2704,00;25,18
2692,00;27,14
2680,00;24,61
2668,00;26,47
2656,00;26,36
2644,00;24,79
2632,00;27,35
2620,00;25,23
2608,00;25,93
2596,00;27,09
2584,00;24,69
2572,00;27,12
2560,00;25,97
2548,00;25,31
2536,00;27,44
2524,00;24,91
2512,00;26,55
2500,00;26,68
2488,00;24,86
2476,00;27,40
2464,00;25,44
2452,00;25,84
2440,00;27,22
2428,00;24,74
2416,00;27,02
2404,00;26,12
2392,00;25,17
2380,00;26,42
2368,00;27,10
2356,00;27,82
2344,00;27,21
2332,00;26,76
2320,00;26,97
2308,00;23,68
2296,00;24,49
2284,00;27,05
2272,00;24,71
2260,00;26,83
2248,00;26,32
2236,00;25,16
2224,00;27,57
2212,00;25,23
2200,00;26,37
2188,00;27,08
2176,00;24,91
2164,00;27,47
2152,00;25,75
2140,00;25,63
2128,00;27,36
2116,00;24,87
2104,00;26,85
2092,00;26,52
2080,00;25,13
2068,00;27,63
2056,00;25,45
2044,00;26,35
2032,00;27,34
2020,00;25,00
2008,00;27,39
1996,00;26,11
1984,00;25,68
1972,00;27,65
1960,00;25,10
1948,00;26,84
1936,00;26,77
1924,00;25,20
1912,00;27,67
1900,00;25,58
1888,00;26,34
1876,00;27,39
1864,00;25,09
1852,00;27,33
1840,00;26,41
1828,00;25,93
1816,00;27,68
1804,00;25,33
1792,00;27,02
1780,00;27,20
1768,00;25,34
1756,00;27,83
1744,00;26,20
1732,00;26,67
1720,00;27,76
1708,00;25,18
1696,00;27,45
1684,00;26,90
1672,00;25,66
1660,00;27,68
1648,00;25,72
1636,00;26,65
1624,00;27,14
1612,00;24,95
1600,00;27,51
1588,00;25,90
1576,00;26,09
1564,00;27,99
1552,00;25,66
1540,00;28,31
1528,00;27,53
1516,00;26,57
1504,00;28,85
1492,00;26,23
1480,00;27,10
1468,00;27,87
1456,00;26,20
1444,00;28,04
1432,00;26,78
1420,00;26,51
1408,00;28,28
1396,00;26,12
1384,00;27,70
1372,00;27,57
1360,00;26,09
1348,00;28,32
1336,00;26,37
1324,00;26,95
1312,00;28,15
1300,00;25,70
1288,00;28,24
1276,00;26,97
1264,00;26,33
1252,00;28,26
1240,00;25,56
1228,00;27,02
1216,00;26,89
1204,00;25,02
1192,00;27,40
1180,00;25,40
1168,00;25,83
1156,00;27,08
1144,00;24,70
1132,00;26,94
1120,00;26,02
1108,00;25,26
1096,00;27,47
1084,00;25,10
1072,00;26,52
1060,00;26,62
1048,00;24,54
1036,00;27,00
1024,00;25,48
1012,00;26,03
1000,00;27,76
988,00;25,28
976,00;27,41
964,00;26,66
952,00;25,48
940,00;27,83
928,00;25,47
916,00;26,52
904,00;27,03
892,00;25,01
880,00;27,55
868,00;26,02
856,00;26,09
844,00;27,87
832,00;25,39
820,00;27,41
808,00;26,90
796,00;25,54
784,00;27,85
772,00;25,58
760,00;26,54
748,00;27,33
736,00;25,19
724,00;27,71
712,00;26,29
700,00;25,82
688,00;27,79
676,00;25,38
664,00;27,16
652,00;26,61
640,00;24,99
628,00;27,35
616,00;25,00
604,00;25,92
592,00;27,01
580,00;24,88
568,00;27,47
556,00;26,16
544,00;25,79
532,00;27,93
520,00;25,59
508,00;28,00
500,00;30,97

File: MoS2 pristine_1.csv
Criado como novo conjunto de dados;Amostra 001 por Analyst data segunda-feira, outubro 28 2024
cm-1;%T
4000,00;33,35
3988,00;33,34
3976,00;33,37
3964,00;33,37
3952,00;33,46
3940,00;33,42
3928,00;33,52
3916,00;33,40
3904,00;33,97
3892,00;33,53
3880,00;33,52
3868,00;33,98
3856,00;34,18
3844,00;33,72
3832,00;33,59
3820,00;34,08
3808,00;33,57
3796,00;33,48
3784,00;33,51
3772,00;33,58
3760,00;33,69
3748,00;34,54
3736,00;34,43
3724,00;33,88
3712,00;34,01
3700,00;33,55
3688,00;33,78
3676,00;34,09
3664,00;33,18
3652,00;33,98
3640,00;33,14
3628,00;33,34
3616,00;33,50
3604,00;32,86
3592,00;32,90
3580,00;32,50
3568,00;32,91
3556,00;32,25
3544,00;32,24
3532,00;32,01
3520,00;31,88
3508,00;31,82
3496,00;31,69
3484,00;31,61
3472,00;31,48
3460,00;31,40
3448,00;31,37
3436,00;31,24
3424,00;31,16
3412,00;31,08
3400,00;31,05
3388,00;30,94
3376,00;30,90
3364,00;30,87
3352,00;30,84
3340,00;30,80
3328,00;30,75
3316,00;30,69
3304,00;30,67
3292,00;30,65
3280,00;30,58
3268,00;30,53
3256,00;30,52
3244,00;30,47
3232,00;30,44
3220,00;30,40
3208,00;30,35
3196,00;30,32
3184,00;30,29
3172,00;30,25
3160,00;30,23
3148,00;30,21
3136,00;30,20
3124,00;30,21
3112,00;30,17
3100,00;30,17
3088,00;30,13
3076,00;30,09
3064,00;30,08
3052,00;30,06
3040,00;30,03
3028,00;30,01
3016,00;30,03
3004,00;29,97
2992,00;29,97
2980,00;29,97
2968,00;29,93
2956,00;29,86
2944,00;29,87
2932,00;29,87
2920,00;29,74
2908,00;29,71
2896,00;29,76
2884,00;29,77
2872,00;29,80
2860,00;29,80
2848,00;29,75
2836,00;29,77
2824,00;29,80
2812,00;29,82
2800,00;29,83
2788,00;29,83
2776,00;29,84
2764,00;29,84
2752,00;29,85
2740,00;29,85
2728,00;29,86
2716,00;29,85
2704,00;29,85
2692,00;29,85
2680,00;29,85
2668,00;29,84
2656,00;29,87
2644,00;29,88
2632,00;29,87
2620,00;29,86
2608,00;29,84
2596,00;29,82
2584,00;29,81
2572,00;29,79
2560,00;29,77
2548,00;29,75
2536,00;29,73
2524,00;29,71
2512,00;29,68
2500,00;29,66
2488,00;29,64
2476,00;29,62
2464,00;29,60
2452,00;29,58
2440,00;29,56
2428,00;29,54
2416,00;29,51
2404,00;29,48
2392,00;29,45
2380,00;29,67
2368,00;29,77
2356,00;29,68
2344,00;29,72
2332,00;29,48
2320,00;29,29
2308,00;29,34
2296,00;29,41
2284,00;29,38
2272,00;29,35
2260,00;29,32
2248,00;29,26
2236,00;29,25
2224,00;29,23
2212,00;29,21
2200,00;29,19
2188,00;29,20
2176,00;29,16
2164,00;29,25
2152,00;29,02
2140,00;29,03
2128,00;29,00
2116,00;29,06
2104,00;29,07
2092,00;29,04
2080,00;29,11
2068,00;29,12
2056,00;29,13
2044,00;29,18
2032,00;29,14
2020,00;29,12
2008,00;29,09
1996,00;29,10
1984,00;29,18
1972,00;29,08
1960,00;29,08
1948,00;29,09
1936,00;29,05
1924,00;29,09
1912,00;29,10
1900,00;29,09
1888,00;29,10
1876,00;29,10
1864,00;29,09
1852,00;29,14
1840,00;29,13
1828,00;29,21
1816,00;29,09
1804,00;29,19
1792,00;29,16
1780,00;29,21
1768,00;29,09
1756,00;29,16
1744,00;29,22
1732,00;29,24
1720,00;29,13
1708,00;29,18
1696,00;29,00
1684,00;29,26
1672,00;29,16
1660,00;29,07
1648,00;29,17
1636,00;29,01
1624,00;29,03
1612,00;29,09
1600,00;29,20
1588,00;29,31
1576,00;29,51
1564,00;29,64
1552,00;29,73
1540,00;29,85
1528,00;29,96
1516,00;30,00
1504,00;30,11
1492,00;30,19
1480,00;30,20
1468,00;30,16
1456,00;30,10
1444,00;30,21
1432,00;30,33
1420,00;30,36
1408,00;30,42
1396,00;30,45
1384,00;30,46
1372,00;30,48
1360,00;30,49
1348,00;30,55
1336,00;30,55
1324,00;30,60
1312,00;30,63
1300,00;30,66
1288,00;30,69
1276,00;30,68
1264,00;30,56
1252,00;30,37
1240,00;30,07
1228,00;29,68
1216,00;29,35
1204,00;29,07
1192,00;28,83
1180,00;28,63
1168,00;28,49
1156,00;28,41
1144,00;28,34
1132,00;28,32
1120,00;28,36
1108,00;28,48
1096,00;28,66
1084,00;28,84
1072,00;28,93
1060,00;28,79
1048,00;28,56
1036,00;28,65
1024,00;29,19
1012,00;29,78
1000,00;30,17
988,00;30,14
976,00;30,10
964,00;30,07
952,00;29,86
940,00;30,01
928,00;30,01
916,00;29,77
904,00;29,85
892,00;30,05
880,00;30,24
868,00;30,47
856,00;30,71
844,00;30,88
832,00;30,93
820,00;30,81
808,00;30,76
796,00;30,63
784,00;30,50
772,00;30,46
760,00;30,36
748,00;30,40
736,00;30,55
724,00;30,68
712,00;30,86
700,00;31,00
688,00;31,21
676,00;31,07
664,00;30,74
652,00;30,98
640,00;30,90
628,00;30,41
616,00;30,34
604,00;30,03
592,00;29,97
580,00;30,26
568,00;30,62
556,00;30,94
544,00;31,24
532,00;31,32
520,00;30,71
508,00;30,90
500,00;32,57

File: MoS2(1)-1H.csv
Criado como novo conjunto de dados;Amostra 002 por Analyst data segunda-feira, outubro 28 2024
cm-1;%T
4000,00;48,51
3988,00;48,52
3976,00;48,56
3964,00;48,57
3952,00;48,70
3940,00;48,72
3928,00;48,89
3916,00;48,78
3904,00;49,59
3892,00;49,01
3880,00;49,01
3868,00;49,61
3856,00;50,21
3844,00;49,23
3832,00;49,22
3820,00;49,71
3808,00;49,23
3796,00;48,99
3784,00;48,92
3772,00;49,13
3760,00;49,30
3748,00;50,65
3736,00;50,39
3724,00;49,57
3712,00;49,88
3700,00;49,07
3688,00;49,57
3676,00;50,12
3664,00;48,60
3652,00;49,94
3640,00;48,57
3628,00;49,13
3616,00;49,35
3604,00;48,47
3592,00;48,58
3580,00;48,06
3568,00;48,69
3556,00;47,87
3544,00;47,94
3532,00;47,66
3520,00;47,56
3508,00;47,49
3496,00;47,34
3484,00;47,31
3472,00;47,16
3460,00;47,10
3448,00;47,08
3436,00;46,94
3424,00;46,87
3412,00;46,80
3400,00;46,79
3388,00;46,68
3376,00;46,62
3364,00;46,59
3352,00;46,52
3340,00;46,45
3328,00;46,34
3316,00;46,22
3304,00;46,14
3292,00;46,04
3280,00;45,89
3268,00;45,78
3256,00;45,72
3244,00;45,63
3232,00;45,58
3220,00;45,54
3208,00;45,53
3196,00;45,55
3184,00;45,58
3172,00;45,62
3160,00;45,69
3148,00;45,76
3136,00;45,83
3124,00;45,91
3112,00;45,93
3100,00;45,96
3088,00;45,94
3076,00;45,93
3064,00;45,93
3052,00;45,94
3040,00;45,96
3028,00;46,01
3016,00;46,09
3004,00;46,10
2992,00;46,18
2980,00;46,23
2968,00;46,23
2956,00;46,21
2944,00;46,30
2932,00;46,34
2920,00;46,25
2908,00;46,23
2896,00;46,32
2884,00;46,35
2872,00;46,41
2860,00;46,42
2848,00;46,37
2836,00;46,41
2824,00;46,47
2812,00;46,52
2800,00;46,56
2788,00;46,60
2776,00;46,64
2764,00;46,65
2752,00;46,69
2740,00;46,71
2728,00;46,73
2716,00;46,74
2704,00;46,75
2692,00;46,76
2680,00;46,79
2668,00;46,79
2656,00;46,83
2644,00;46,88
2632,00;46,93
2620,00;46,96
2608,00;46,99
2596,00;47,01
2584,00;47,03
2572,00;47,04
2560,00;47,05
2548,00;47,05
2536,00;47,06
2524,00;47,06
2512,00;47,07
2500,00;47,06
2488,00;47,06
2476,00;47,07
2464,00;47,06
2452,00;47,06
2440,00;47,06
2428,00;47,05
2416,00;47,06
2404,00;47,06
2392,00;47,05
2380,00;47,28
2368,00;47,25
2356,00;47,28
2344,00;46,74
2332,00;47,13
2320,00;46,80
2308,00;47,01
2296,00;47,09
2284,00;47,19
2272,00;47,23
2260,00;47,24
2248,00;47,25
2236,00;47,26
2224,00;47,28
2212,00;47,30
2200,00;47,32
2188,00;47,33
2176,00;47,38
2164,00;47,40
2152,00;47,42
2140,00;47,41
2128,00;47,35
2116,00;47,35
2104,00;47,38
2092,00;47,40
2080,00;47,46
2068,00;47,52
2056,00;47,56
2044,00;47,69
2032,00;47,74
2020,00;47,77
2008,00;47,74
1996,00;47,73
1984,00;47,76
1972,00;47,84
1960,00;47,82
1948,00;47,82
1936,00;47,81
1924,00;47,87
1912,00;47,86
1900,00;47,87
1888,00;47,90
1876,00;47,91
1864,00;47,94
1852,00;48,00
1840,00;48,01
1828,00;48,12
1816,00;48,04
1804,00;48,13
1792,00;48,13
1780,00;48,17
1768,00;48,08
1756,00;48,16
1744,00;48,20
1732,00;48,15
1720,00;48,04
1708,00;48,01
1696,00;47,79
1684,00;47,95
1672,00;47,76
1660,00;47,60
1648,00;47,77
1636,00;47,82
1624,00;47,91
1612,00;47,97
1600,00;48,11
1588,00;48,23
1576,00;48,43
1564,00;48,56
1552,00;48,65
1540,00;48,77
1528,00;48,89
1516,00;48,95
1504,00;49,05
1492,00;49,13
1480,00;49,10
1468,00;48,96
1456,00;48,77
1444,00;48,71
1432,00;48,69
1420,00;48,71
1408,00;48,94
1396,00;49,15
1384,00;49,30
1372,00;49,41
1360,00;49,47
1348,00;49,58
1336,00;49,64
1324,00;49,74
1312,00;49,79
1300,00;49,87
1288,00;49,92
1276,00;49,89
1264,00;49,72
1252,00;49,58
1240,00;49,39
1228,00;49,22
1216,00;49,12
1204,00;49,05
1192,00;49,02
1180,00;49,03
1168,00;49,06
1156,00;49,11
1144,00;49,11
1132,00;49,13
1120,00;49,18
1108,00;49,26
1096,00;49,42
1084,00;49,45
1072,00;49,43
1060,00;49,31
1048,00;49,30
1036,00;49,38
1024,00;49,70
1012,00;50,07
1000,00;50,24
988,00;50,23
976,00;50,11
964,00;50,08
952,00;50,06
940,00;50,30
928,00;50,52
916,00;50,38
904,00;50,32
892,00;50,37
880,00;50,40
868,00;50,53
856,00;50,72
844,00;50,86
832,00;50,95
820,00;50,86
808,00;50,72
796,00;50,59
784,00;50,37
772,00;50,13
760,00;49,79
748,00;49,60
736,00;49,49
724,00;49,33
712,00;49,27
700,00;49,20
688,00;49,05
676,00;48,58
664,00;47,70
652,00;47,68
640,00;47,22
628,00;46,52
616,00;46,20
604,00;45,80
592,00;45,59
580,00;45,41
568,00;45,07
556,00;44,48
544,00;43,78
532,00;43,70
520,00;43,95
508,00;44,42
500,00;43,34

File: MoS2(1)-1H_1.csv
Criado como novo conjunto de dados;Amostra 003 por Analyst data segunda-feira, outubro 28 2024
cm-1;%T
4000,00;25,79
3988,00;25,79
3976,00;25,82
3964,00;25,82
3952,00;25,91
3940,00;25,89
3928,00;25,99
3916,00;25,89
3904,00;26,40
3892,00;26,01
3880,00;26,00
3868,00;26,43
3856,00;26,67
3844,00;26,20
3832,00;26,11
3820,00;26,52
3808,00;26,11
3796,00;26,00
3784,00;26,04
3772,00;26,12
3760,00;26,21
3748,00;26,97
3736,00;26,85
3724,00;26,34
3712,00;26,48
3700,00;26,07
3688,00;26,28
3676,00;26,58
3664,00;25,76
3652,00;26,52
3640,00;25,75
3628,00;25,93
3616,00;26,09
3604,00;25,56
3592,00;25,59
3580,00;25,26
3568,00;25,63
3556,00;25,09
3544,00;25,09
3532,00;24,90
3520,00;24,81
3508,00;24,76
3496,00;24,66
3484,00;24,62
3472,00;24,52
3460,00;24,47
3448,00;24,46
3436,00;24,36
3424,00;24,30
3412,00;24,25
3400,00;24,25
3388,00;24,15
3376,00;24,12
3364,00;24,11
3352,00;24,06
3340,00;24,03
3328,00;23,96
3316,00;23,88
3304,00;23,86
3292,00;23,81
3280,00;23,70
3268,00;23,64
3256,00;23,61
3244,00;23,55
3232,00;23,52
3220,00;23,48
3208,00;23,46
3196,00;23,46
3184,00;23,46
3172,00;23,47
3160,00;23,50
3148,00;23,53
3136,00;23,56
3124,00;23,60
3112,00;23,60
3100,00;23,61
3088,00;23,59
3076,00;23,57
3064,00;23,56
3052,00;23,56
3040,00;23,57
3028,00;23,56
3016,00;23,61
3004,00;23,57
2992,00;23,60
2980,00;23,62
2968,00;23,58
2956,00;23,51
2944,00;23,57
2932,00;23,57
2920,00;23,40
2908,00;23,39
2896,00;23,52
2884,00;23,57
2872,00;23,65
2860,00;23,66
2848,00;23,63
2836,00;23,71
2824,00;23,79
2812,00;23,85
2800,00;23,89
2788,00;23,93
2776,00;23,96
2764,00;23,98
2752,00;24,01
2740,00;24,03
2728,00;24,06
2716,00;24,08
2704,00;24,10
2692,00;24,11
2680,00;24,14
2668,00;24,15
2656,00;24,20
2644,00;24,23
2632,00;24,26
2620,00;24,28
2608,00;24,30
2596,00;24,31
2584,00;24,31
2572,00;24,31
2560,00;24,32
2548,00;24,32
2536,00;24,33
2524,00;24,32
2512,00;24,32
2500,00;24,31
2488,00;24,31
2476,00;24,31
2464,00;24,31
2452,00;24,31
2440,00;24,31
2428,00;24,30
2416,00;24,29
2404,00;24,29
2392,00;24,28
2380,00;24,51
2368,00;24,74
2356,00;24,43
2344,00;24,60
2332,00;24,39
2320,00;24,36
2308,00;24,37
2296,00;24,40
2284,00;24,40
2272,00;24,41
2260,00;24,40
2248,00;24,40
2236,00;24,38
2224,00;24,43
2212,00;24,42
2200,00;24,44
2188,00;24,46
2176,00;24,46
2164,00;24,52
2152,00;24,40
2140,00;24,39
2128,00;24,35
2116,00;24,40
2104,00;24,44
2092,00;24,43
2080,00;24,50
2068,00;24,54
2056,00;24,58
2044,00;24,65
2032,00;24,68
2020,00;24,65
2008,00;24,67
1996,00;24,64
1984,00;24,72
1972,00;24,71
1960,00;24,66
1948,00;24,67
1936,00;24,63
1924,00;24,67
1912,00;24,67
1900,00;24,68
1888,00;24,69
1876,00;24,70
1864,00;24,70
1852,00;24,73
1840,00;24,73
1828,00;24,80
1816,00;24,72
1804,00;24,78
1792,00;24,76
1780,00;24,79
1768,00;24,68
1756,00;24,71
1744,00;24,69
1732,00;24,66
1720,00;24,48
1708,00;24,43
1696,00;24,22
1684,00;24,33
1672,00;24,17
1660,00;24,02
1648,00;24,07
1636,00;23,96
1624,00;23,96
1612,00;23,98
1600,00;24,06
1588,00;24,16
1576,00;24,33
1564,00;24,42
1552,00;24,50
1540,00;24,57
1528,00;24,67
1516,00;24,68
1504,00;24,76
1492,00;24,78
1480,00;24,71
1468,00;24,49
1456,00;24,21
1444,00;24,14
1432,00;24,11
1420,00;24,12
1408,00;24,28
1396,00;24,43
1384,00;24,52
1372,00;24,55
1360,00;24,59
1348,00;24,66
1336,00;24,66
1324,00;24,68
1312,00;24,65
1300,00;24,62
1288,00;24,56
1276,00;24,43
1264,00;24,14
1252,00;23,89
1240,00;23,58
1228,00;23,28
1216,00;23,07
1204,00;22,90
1192,00;22,75
1180,00;22,60
1168,00;22,45
1156,00;22,35
1144,00;22,21
1132,00;22,10
1120,00;22,08
1108,00;22,15
1096,00;22,34
1084,00;22,46
1072,00;22,54
1060,00;22,53
1048,00;22,62
1036,00;22,79
1024,00;23,19
1012,00;23,57
1000,00;23,69
988,00;23,53
976,00;23,29
964,00;23,23
952,00;23,14
940,00;23,38
928,00;23,62
916,00;23,54
904,00;23,57
892,00;23,68
880,00;23,72
868,00;23,83
856,00;24,01
844,00;24,13
832,00;24,16
820,00;23,99
808,00;23,78
796,00;23,59
784,00;23,37
772,00;23,11
760,00;22,73
748,00;22,48
736,00;22,29
724,00;22,07
712,00;21,94
700,00;21,85
688,00;21,68
676,00;21,28
664,00;20,79
652,00;20,54
640,00;20,12
628,00;19,46
616,00;18,97
604,00;18,51
592,00;18,29
580,00;18,04
568,00;17,79
556,00;17,54
544,00;17,12
532,00;16,93
520,00;16,54
508,00;16,23
500,00;16,01