Folder: FINAL_PROJECT_GREEN_HYDROGEN/FTIR/LNB_28-10-2024 (part 3)

File: MoS2(1)-20H.csv
Criado como novo conjunto de dados;Amostra 010 por Analyst data segunda-feira, outubro 28 2024
cm-1;%T
4000,00;48,00
3988,00;48,00
3976,00;48,00
3964,00;48,01
3952,00;48,00
3940,00;48,01
3928,00;48,00
3916,00;48,03
3904,00;47,99
3892,00;48,05
3880,00;48,01
3868,00;48,02
3856,00;48,10
3844,00;48,12
3832,00;48,12
3820,00;48,11
3808,00;48,29
3796,00;48,24
3784,00;48,35
3772,00;48,40
3760,00;48,38
3748,00;48,33
3736,00;48,37
3724,00;48,52
3712,00;48,56
3700,00;48,65
3688,00;48,62
3676,00;48,64
3664,00;48,68
3652,00;48,53
3640,00;48,50
3628,00;48,29
3616,00;48,09
3604,00;47,97
3592,00;47,79
3580,00;47,64
3568,00;47,38
3556,00;47,30
3544,00;47,11
3532,00;46,99
3520,00;46,84
3508,00;46,71
3496,00;46,60
3484,00;46,48
3472,00;46,39
3460,00;46,28
3448,00;46,18
3436,00;46,11
3424,00;46,03
3412,00;45,97
3400,00;45,91
3388,00;45,85
3376,00;45,82
3364,00;45,78
3352,00;45,77
3340,00;45,77
3328,00;45,76
3316,00;45,77
3304,00;45,80
3292,00;45,81
3280,00;45,81
3268,00;45,83
3256,00;45,83
3244,00;45,83
3232,00;45,84
3220,00;45,82
3208,00;45,81
3196,00;45,81
3184,00;45,81
3172,00;45,81
3160,00;45,81
3148,00;45,81
3136,00;45,81
3124,00;45,82
3112,00;45,84
3100,00;45,85
3088,00;45,87
3076,00;45,89
3064,00;45,90
3052,00;45,92
3040,00;45,95
3028,00;45,95
3016,00;45,99
3004,00;45,99
2992,00;46,00
2980,00;45,96
2968,00;45,87
2956,00;45,74
2944,00;45,71
2932,00;45,69
2920,00;45,39
2908,00;45,19
2896,00;45,49
2884,00;45,68
2872,00;45,78
2860,00;45,82
2848,00;45,78
2836,00;45,87
2824,00;46,05
2812,00;46,15
2800,00;46,21
2788,00;46,26
2776,00;46,31
2764,00;46,34
2752,00;46,39
2740,00;46,42
2728,00;46,47
2716,00;46,50
2704,00;46,54
2692,00;46,57
2680,00;46,62
2668,00;46,64
2656,00;46,67
2644,00;46,79
2632,00;46,91
2620,00;47,01
2608,00;47,09
2596,00;47,17
2584,00;47,22
2572,00;47,27
2560,00;47,31
2548,00;47,34
2536,00;47,36
2524,00;47,39
2512,00;47,41
2500,00;47,42
2488,00;47,44
2476,00;47,46
2464,00;47,47
2452,00;47,47
2440,00;47,50
2428,00;47,53
2416,00;47,54
2404,00;47,57
2392,00;47,57
2380,00;47,59
2368,00;47,61
2356,00;47,54
2344,00;47,57
2332,00;47,50
2320,00;47,46
2308,00;47,56
2296,00;47,59
2284,00;47,59
2272,00;47,71
2260,00;47,77
2248,00;47,83
2236,00;47,84
2224,00;47,87
2212,00;47,89
2200,00;47,91
2188,00;47,90
2176,00;48,00
2164,00;47,88
2152,00;48,27
2140,00;48,22
2128,00;48,18
2116,00;48,00
2104,00;48,00
2092,00;48,09
2080,00;48,03
2068,00;48,10
2056,00;48,13
2044,00;48,19
2032,00;48,32
2020,00;48,34
2008,00;48,42
1996,00;48,34
1984,00;48,28
1972,00;48,55
1960,00;48,57
1948,00;48,52
1936,00;48,51
1924,00;48,51
1912,00;48,47
1900,00;48,49
1888,00;48,52
1876,00;48,52
1864,00;48,54
1852,00;48,56
1840,00;48,58
1828,00;48,56
1816,00;48,60
1804,00;48,54
1792,00;48,54
1780,00;48,52
1768,00;48,46
1756,00;48,37
1744,00;48,23
1732,00;48,08
1720,00;47,76
1708,00;47,43
1696,00;47,13
1684,00;46,74
1672,00;46,41
1660,00;46,20
1648,00;45,89
1636,00;45,63
1624,00;45,48
1612,00;45,55
1600,00;45,78
1588,00;46,05
1576,00;46,28
1564,00;46,49
1552,00;46,71
1540,00;46,87
1528,00;47,10
1516,00;47,26
1504,00;47,41
1492,00;47,45
1480,00;47,41
1468,00;47,09
1456,00;46,66
1444,00;46,58
1432,00;46,62
1420,00;46,67
1408,00;46,77
1396,00;46,86
1384,00;46,82
1372,00;46,69
1360,00;46,79
1348,00;46,93
1336,00;47,18
1324,00;47,34
1312,00;47,39
1300,00;47,49
1288,00;47,52
1276,00;47,39
1264,00;46,92
1252,00;46,44
1240,00;45,66
1228,00;44,79
1216,00;44,08
1204,00;43,55
1192,00;43,14
1180,00;42,77
1168,00;42,31
1156,00;41,70
1144,00;40,98
1132,00;40,30
1120,00;39,81
1108,00;39,76
1096,00;39,94
1084,00;40,12
1072,00;40,20
1060,00;40,34
1048,00;40,58
1036,00;41,10
1024,00;41,96
1012,00;42,43
1000,00;42,60
988,00;42,72
976,00;42,71
964,00;42,56
952,00;42,20
940,00;41,89
928,00;42,11
916,00;42,29
904,00;42,30
892,00;42,40
880,00;42,51
868,00;42,62
856,00;42,79
844,00;42,89
832,00;42,87
820,00;42,62
808,00;42,20
796,00;41,72
784,00;41,00
772,00;40,13
760,00;39,22
748,00;38,44
736,00;37,79
724,00;37,21
712,00;36,67
700,00;36,14
688,00;35,68
676,00;35,02
664,00;34,29
652,00;33,51
640,00;32,74
628,00;31,92
616,00;31,14
604,00;30,41
592,00;29,82
580,00;29,42
568,00;29,23
556,00;29,35
544,00;29,31
532,00;28,51
520,00;27,71
508,00;26,12
500,00;24,54

File: MoS2(2)-1H.csv
Criado como novo conjunto de dados;Amostra 011 por Analyst data segunda-feira, outubro 28 2024
cm-1;%T
4000,00;16,86
3988,00;16,84
3976,00;16,84
3964,00;16,83
3952,00;16,81
3940,00;16,76
3928,00;16,74
3916,00;16,71
3904,00;16,70
3892,00;16,67
3880,00;16,58
3868,00;16,62
3856,00;16,57
3844,00;16,68
3832,00;16,56
3820,00;16,59
3808,00;16,67
3796,00;16,55
3784,00;16,70
3772,00;16,69
3760,00;16,64
3748,00;16,52
3736,00;16,58
3724,00;16,62
3712,00;16,65
3700,00;16,64
3688,00;16,54
3676,00;16,53
3664,00;16,55
3652,00;16,49
3640,00;16,47
3628,00;16,28
3616,00;16,21
3604,00;16,17
3592,00;16,06
3580,00;16,00
3568,00;15,92
3556,00;15,85
3544,00;15,72
3532,00;15,69
3520,00;15,58
3508,00;15,53
3496,00;15,49
3484,00;15,42
3472,00;15,36
3460,00;15,29
3448,00;15,24
3436,00;15,20
3424,00;15,13
3412,00;15,10
3400,00;15,07
3388,00;14,99
3376,00;14,96
3364,00;14,92
3352,00;14,89
3340,00;14,85
3328,00;14,79
3316,00;14,72
3304,00;14,69
3292,00;14,61
3280,00;14,51
3268,00;14,44
3256,00;14,38
3244,00;14,30
3232,00;14,27
3220,00;14,20
3208,00;14,16
3196,00;14,13
3184,00;14,12
3172,00;14,12
3160,00;14,13
3148,00;14,14
3136,00;14,14
3124,00;14,13
3112,00;14,12
3100,00;14,09
3088,00;14,07
3076,00;14,02
3064,00;13,99
3052,00;13,98
3040,00;13,98
3028,00;13,95
3016,00;13,99
3004,00;13,97
2992,00;13,99
2980,00;14,00
2968,00;13,95
2956,00;13,88
2944,00;13,89
2932,00;13,85
2920,00;13,67
2908,00;13,63
2896,00;13,73
2884,00;13,77
2872,00;13,80
2860,00;13,79
2848,00;13,73
2836,00;13,79
2824,00;13,85
2812,00;13,89
2800,00;13,92
2788,00;13,94
2776,00;13,96
2764,00;13,97
2752,00;13,98
2740,00;13,99
2728,00;14,01
2716,00;14,01
2704,00;14,01
2692,00;14,02
2680,00;14,03
2668,00;14,02
2656,00;14,03
2644,00;14,03
2632,00;14,03
2620,00;14,02
2608,00;14,02
2596,00;14,00
2584,00;13,99
2572,00;13,98
2560,00;13,97
2548,00;13,95
2536,00;13,93
2524,00;13,91
2512,00;13,89
2500,00;13,87
2488,00;13,85
2476,00;13,84
2464,00;13,82
2452,00;13,81
2440,00;13,79
2428,00;13,77
2416,00;13,75
2404,00;13,73
2392,00;13,71
2380,00;13,82
2368,00;13,74
2356,00;13,58
2344,00;13,77
2332,00;13,55
2320,00;13,52
2308,00;13,56
2296,00;13,57
2284,00;13,57
2272,00;13,59
2260,00;13,55
2248,00;13,52
2236,00;13,51
2224,00;13,50
2212,00;13,50
2200,00;13,46
2188,00;13,45
2176,00;13,43
2164,00;13,48
2152,00;13,38
2140,00;13,35
2128,00;13,30
2116,00;13,29
2104,00;13,28
2092,00;13,26
2080,00;13,28
2068,00;13,26
2056,00;13,28
2044,00;13,26
2032,00;13,31
2020,00;13,28
2008,00;13,23
1996,00;13,18
1984,00;13,20
1972,00;13,22
1960,00;13,13
1948,00;13,08
1936,00;13,06
1924,00;13,03
1912,00;13,01
1900,00;12,99
1888,00;12,97
1876,00;12,95
1864,00;12,91
1852,00;12,91
1840,00;12,87
1828,00;12,85
1816,00;12,82
1804,00;12,80
1792,00;12,76
1780,00;12,72
1768,00;12,64
1756,00;12,61
1744,00;12,49
1732,00;12,46
1720,00;12,31
1708,00;12,20
1696,00;12,05
1684,00;12,05
1672,00;11,94
1660,00;11,84
1648,00;11,69
1636,00;11,62
1624,00;11,56
1612,00;11,55
1600,00;11,60
1588,00;11,66
1576,00;11,73
1564,00;11,74
1552,00;11,79
1540,00;11,76
1528,00;11,84
1516,00;11,78
1504,00;11,83
1492,00;11,84
1480,00;11,72
1468,00;11,39
1456,00;10,98
1444,00;10,71
1432,00;10,48
1420,00;10,47
1408,00;10,66
1396,00;10,86
1384,00;11,04
1372,00;11,09
1360,00;11,14
1348,00;11,20
1336,00;11,19
1324,00;11,23
1312,00;11,20
1300,00;11,21
1288,00;11,20
1276,00;11,18
1264,00;11,03
1252,00;10,90
1240,00;10,61
1228,00;10,16
1216,00;9,71
1204,00;9,36
1192,00;9,05
1180,00;8,82
1168,00;8,63
1156,00;8,53
1144,00;8,39
1132,00;8,18
1120,00;7,98
1108,00;7,94
1096,00;8,05
1084,00;8,15
1072,00;8,22
1060,00;8,21
1048,00;8,17
1036,00;8,14
1024,00;8,36
1012,00;8,70
1000,00;8,79
988,00;8,79
976,00;8,70
964,00;8,52
952,00;8,17
940,00;8,07
928,00;8,20
916,00;8,04
904,00;7,93
892,00;8,04
880,00;8,12
868,00;8,19
856,00;8,29
844,00;8,39
832,00;8,41
820,00;8,31
808,00;8,17
796,00;8,11
784,00;8,04
772,00;7,93
760,00;7,83
748,00;7,80
736,00;7,88
724,00;7,90
712,00;7,95
700,00;7,99
688,00;8,06
676,00;7,99
664,00;7,89
652,00;7,89
640,00;7,90
628,00;7,67
616,00;7,49
604,00;7,29
592,00;7,27
580,00;7,48
568,00;7,54
556,00;7,79
544,00;7,76
532,00;7,97
520,00;8,09
508,00;8,50
500,00;7,12

File: MoS2(2)-5H.csv
Criado como novo conjunto de dados;Amostra 012 por Analyst data segunda-feira, outubro 28 2024
cm-1;%T
4000,00;29,31
3988,00;29,32
3976,00;29,35
3964,00;29,36
3952,00;29,44
3940,00;29,43
3928,00;29,52
3916,00;29,45
3904,00;29,92
3892,00;29,58
3880,00;29,57
3868,00;29,96
3856,00;30,21
3844,00;29,79
3832,00;29,71
3820,00;30,10
3808,00;29,75
3796,00;29,66
3784,00;29,71
3772,00;29,81
3760,00;29,90
3748,00;30,60
3736,00;30,51
3724,00;30,06
3712,00;30,22
3700,00;29,84
3688,00;30,05
3676,00;30,34
3664,00;29,60
3652,00;30,29
3640,00;29,57
3628,00;29,72
3616,00;29,81
3604,00;29,31
3592,00;29,31
3580,00;28,99
3568,00;29,30
3556,00;28,79
3544,00;28,76
3532,00;28,58
3520,00;28,47
3508,00;28,41
3496,00;28,29
3484,00;28,23
3472,00;28,12
3460,00;28,05
3448,00;28,02
3436,00;27,92
3424,00;27,85
3412,00;27,79
3400,00;27,76
3388,00;27,67
3376,00;27,64
3364,00;27,61
3352,00;27,57
3340,00;27,53
3328,00;27,47
3316,00;27,39
3304,00;27,36
3292,00;27,32
3280,00;27,23
3268,00;27,17
3256,00;27,14
3244,00;27,08
3232,00;27,06
3220,00;27,02
3208,00;27,00
3196,00;27,00
3184,00;27,00
3172,00;27,01
3160,00;27,03
3148,00;27,05
3136,00;27,08
3124,00;27,11
3112,00;27,12
3100,00;27,13
3088,00;27,11
3076,00;27,10
3064,00;27,10
3052,00;27,10
3040,00;27,11
3028,00;27,12
3016,00;27,18
3004,00;27,17
2992,00;27,21
2980,00;27,24
2968,00;27,23
2956,00;27,17
2944,00;27,18
2932,00;27,21
2920,00;27,03
2908,00;26,92
2896,00;27,06
2884,00;27,14
2872,00;27,21
2860,00;27,23
2848,00;27,18
2836,00;27,22
2824,00;27,31
2812,00;27,37
2800,00;27,41
2788,00;27,45
2776,00;27,48
2764,00;27,50
2752,00;27,53
2740,00;27,56
2728,00;27,58
2716,00;27,60
2704,00;27,62
2692,00;27,64
2680,00;27,66
2668,00;27,67
2656,00;27,71
2644,00;27,77
2632,00;27,82
2620,00;27,85
2608,00;27,88
2596,00;27,91
2584,00;27,91
2572,00;27,93
2560,00;27,93
2548,00;27,93
2536,00;27,94
2524,00;27,94
2512,00;27,94
2500,00;27,93
2488,00;27,93
2476,00;27,92
2464,00;27,92
2452,00;27,92
2440,00;27,92
2428,00;27,91
2416,00;27,91
2404,00;27,90
2392,00;27,89
2380,00;28,06
2368,00;28,21
2356,00;27,88
2344,00;28,02
2332,00;27,87
2320,00;27,85
2308,00;27,88
2296,00;27,92
2284,00;27,95
2272,00;27,98
2260,00;27,97
2248,00;27,98
2236,00;27,99
2224,00;27,99
2212,00;28,01
2200,00;27,99
2188,00;28,01
2176,00;28,04
2164,00;28,05
2152,00;28,01
2140,00;27,97
2128,00;27,94
2116,00;27,92
2104,00;27,94
2092,00;27,94
2080,00;27,98
2068,00;28,01
2056,00;28,05
2044,00;28,12
2032,00;28,19
2020,00;28,14
2008,00;28,12
1996,00;28,10
1984,00;28,12
1972,00;28,14
1960,00;28,10
1948,00;28,07
1936,00;28,03
1924,00;28,04
1912,00;28,01
1900,00;27,99
1888,00;27,98
1876,00;27,98
1864,00;27,96
1852,00;27,97
1840,00;27,95
1828,00;27,99
1816,00;27,90
1804,00;27,94
1792,00;27,89
1780,00;27,89
1768,00;27,79
1756,00;27,79
1744,00;27,76
1732,00;27,67
1720,00;27,49
1708,00;27,41
1696,00;27,16
1684,00;27,20
1672,00;27,03
1660,00;26,84
1648,00;26,83
1636,00;26,70
1624,00;26,66
1612,00;26,67
1600,00;26,74
1588,00;26,84
1576,00;26,97
1564,00;27,09
1552,00;27,14
1540,00;27,19
1528,00;27,29
1516,00;27,29
1504,00;27,33
1492,00;27,36
1480,00;27,30
1468,00;27,13
1456,00;26,86
1444,00;26,80
1432,00;26,75
1420,00;26,73
1408,00;26,83
1396,00;26,90
1384,00;26,94
1372,00;26,91
1360,00;26,88
1348,00;26,92
1336,00;26,90
1324,00;26,94
1312,00;26,92
1300,00;26,89
1288,00;26,84
1276,00;26,69
1264,00;26,31
1252,00;25,96
1240,00;25,53
1228,00;25,11
1216,00;24,79
1204,00;24,54
1192,00;24,28
1180,00;24,03
1168,00;23,80
1156,00;23,60
1144,00;23,38
1132,00;23,23
1120,00;23,19
1108,00;23,26
1096,00;23,40
1084,00;23,51
1072,00;23,49
1060,00;23,32
1048,00;23,18
1036,00;23,22
1024,00;23,51
1012,00;23,78
1000,00;23,86
988,00;23,69
976,00;23,39
964,00;23,20
952,00;22,83
940,00;22,95
928,00;23,20
916,00;23,02
904,00;22,98
892,00;23,01
880,00;23,00
868,00;23,02
856,00;23,08
844,00;23,10
832,00;23,07
820,00;22,88
808,00;22,67
796,00;22,58
784,00;22,52
772,00;22,47
760,00;22,39
748,00;22,37
736,00;22,37
724,00;22,33
712,00;22,30
700,00;22,24
688,00;22,11
676,00;21,83
664,00;21,46
652,00;21,49
640,00;21,39
628,00;21,09
616,00;20,94
604,00;20,78
592,00;20,86
580,00;21,06
568,00;21,01
556,00;21,02
544,00;20,96
532,00;21,17
520,00;21,19
508,00;21,78
500,00;23,05

File: MoS2-NS-Amônia.csv
Criado como novo conjunto de dados;Amostra 013 por Analyst data segunda-feira, outubro 28 2024
cm-1;%T
4000,00;64,36
3988,00;64,39
3976,00;64,43
3964,00;64,48
3952,00;64,52
3940,00;64,54
3928,00;64,58
3916,00;64,61
3904,00;64,66
3892,00;64,73
3880,00;64,73
3868,00;64,87
3856,00;64,89
3844,00;65,05
3832,00;65,07
3820,00;65,18
3808,00;65,34
3796,00;65,35
3784,00;65,54
3772,00;65,66
3760,00;65,75
3748,00;65,83
3736,00;65,91
3724,00;66,09
3712,00;66,28
3700,00;66,40
3688,00;66,49
3676,00;66,61
3664,00;66,80
3652,00;66,78
3640,00;66,80
3628,00;66,57
3616,00;66,28
3604,00;65,99
3592,00;65,67
3580,00;65,42
3568,00;65,20
3556,00;65,04
3544,00;64,78
3532,00;64,76
3520,00;64,59
3508,00;64,51
3496,00;64,38
3484,00;64,30
3472,00;64,20
3460,00;64,09
3448,00;64,03
3436,00;63,90
3424,00;63,87
3412,00;63,78
3400,00;63,71
3388,00;63,71
3376,00;63,70
3364,00;63,67
3352,00;63,67
3340,00;63,65
3328,00;63,63
3316,00;63,57
3304,00;63,42
3292,00;63,28
3280,00;63,11
3268,00;62,88
3256,00;62,70
3244,00;62,50
3232,00;62,34
3220,00;62,23
3208,00;62,14
3196,00;62,08
3184,00;62,07
3172,00;62,10
3160,00;62,17
3148,00;62,25
3136,00;62,33
3124,00;62,43
3112,00;62,45
3100,00;62,47
3088,00;62,43
3076,00;62,36
3064,00;62,33
3052,00;62,33
3040,00;62,31
3028,00;62,36
3016,00;62,42
3004,00;62,52
2992,00;62,55
2980,00;62,54
2968,00;62,58
2956,00;62,68
2944,00;62,82
2932,00;62,94
2920,00;62,98
2908,00;63,04
2896,00;63,14
2884,00;63,22
2872,00;63,29
2860,00;63,37
2848,00;63,44
2836,00;63,54
2824,00;63,65
2812,00;63,80
2800,00;63,95
2788,00;64,10
2776,00;64,26
2764,00;64,42
2752,00;64,57
2740,00;64,72
2728,00;64,86
2716,00;64,99
2704,00;65,13
2692,00;65,27
2680,00;65,39
2668,00;65,52
2656,00;65,67
2644,00;65,94
2632,00;66,19
2620,00;66,41
2608,00;66,60
2596,00;66,78
2584,00;66,94
2572,00;67,08
2560,00;67,22
2548,00;67,34
2536,00;67,46
2524,00;67,57
2512,00;67,67
2500,00;67,78
2488,00;67,87
2476,00;67,97
2464,00;68,05
2452,00;68,13
2440,00;68,25
2428,00;68,34
2416,00;68,44
2404,00;68,53
2392,00;68,58
2380,00;68,61
2368,00;68,63
2356,00;68,46
2344,00;68,71
2332,00;68,67
2320,00;68,74
2308,00;69,08
2296,00;69,29
2284,00;69,41
2272,00;69,64
2260,00;69,81
2248,00;69,95
2236,00;70,06
2224,00;70,17
2212,00;70,32
2200,00;70,39
2188,00;70,48
2176,00;70,65
2164,00;70,61
2152,00;71,09
2140,00;71,02
2128,00;71,05
2116,00;70,99
2104,00;71,08
2092,00;71,21
2080,00;71,23
2068,00;71,36
2056,00;71,48
2044,00;71,64
2032,00;71,84
2020,00;71,94
2008,00;72,03
1996,00;72,02
1984,00;72,06
1972,00;72,41
1960,00;72,54
1948,00;72,57
1936,00;72,65
1924,00;72,73
1912,00;72,81
1900,00;72,89
1888,00;72,96
1876,00;73,07
1864,00;73,12
1852,00;73,24
1840,00;73,30
1828,00;73,36
1816,00;73,48
1804,00;73,49
1792,00;73,55
1780,00;73,66
1768,00;73,71
1756,00;73,78
1744,00;73,75
1732,00;73,64
1720,00;73,18
1708,00;72,47
1696,00;72,04
1684,00;71,58
1672,00;70,66
1660,00;69,63
1648,00;68,80
1636,00;67,87
1624,00;66,82
1612,00;66,10
1600,00;66,07
1588,00;66,79
1576,00;67,82
1564,00;69,00
1552,00;70,18
1540,00;71,03
1528,00;71,62
1516,00;72,00
1504,00;72,39
1492,00;72,30
1480,00;71,97
1468,00;70,88
1456,00;68,66
1444,00;66,70
1432,00;65,00
1420,00;64,51
1408,00;65,51
1396,00;67,18
1384,00;68,62
1372,00;69,70
1360,00;70,93
1348,00;71,61
1336,00;72,04
1324,00;72,20
1312,00;72,25
1300,00;72,86
1288,00;73,36
1276,00;73,57
1264,00;73,28
1252,00;72,45
1240,00;71,25
1228,00;70,09
1216,00;68,74
1204,00;67,09
1192,00;65,62
1180,00;64,71
1168,00;64,65
1156,00;64,83
1144,00;64,72
1132,00;63,69
1120,00;62,42
1108,00;62,66
1096,00;64,66
1084,00;66,74
1072,00;67,71
1060,00;67,40
1048,00;65,93
1036,00;63,75
1024,00;64,25
1012,00;67,36
1000,00;69,40
988,00;69,77
976,00;67,69
964,00;63,93
952,00;59,75
940,00;56,94
928,00;58,08
916,00;57,32
904,00;56,40
892,00;58,72
880,00;61,06
868,00;61,76
856,00;62,12
844,00;62,66
832,00;63,32
820,00;63,24
808,00;61,89
796,00;59,94
784,00;58,19
772,00;56,40
760,00;55,31
748,00;54,90
736,00;54,53
724,00;53,97
712,00;53,51
700,00;53,34
688,00;53,71
676,00;54,17
664,00;53,73
652,00;53,32
640,00;53,48
628,00;53,01
616,00;52,41
604,00;52,15
592,00;52,21
580,00;52,13
568,00;52,41
556,00;53,05
544,00;53,97
532,00;54,93
520,00;55,44
508,00;56,14
500,00;55,32

File: MoS2-NS-Sódio.csv
Criado como novo conjunto de dados;Amostra 020 por Analyst data segunda-feira, outubro 28 2024
cm-1;%T
4000,00;45,28
3988,00;45,32
3976,00;45,37
3964,00;45,41
3952,00;45,51
3940,00;45,52
3928,00;45,63
3916,00;45,60
3904,00;45,95
3892,00;45,80
3880,00;45,84
3868,00;46,14
3856,00;46,33
3844,00;46,21
3832,00;46,20
3820,00;46,53
3808,00;46,40
3796,00;46,46
3784,00;46,62
3772,00;46,76
3760,00;46,94
3748,00;47,48
3736,00;47,56
3724,00;47,42
3712,00;47,70
3700,00;47,62
3688,00;47,92
3676,00;48,28
3664,00;48,04
3652,00;48,51
3640,00;48,16
3628,00;48,07
3616,00;47,88
3604,00;47,20
3592,00;46,81
3580,00;46,23
3568,00;46,12
3556,00;45,52
3544,00;45,24
3532,00;44,99
3520,00;44,74
3508,00;44,57
3496,00;44,29
3484,00;44,12
3472,00;43,88
3460,00;43,67
3448,00;43,52
3436,00;43,23
3424,00;43,11
3412,00;42,91
3400,00;42,76
3388,00;42,66
3376,00;42,59
3364,00;42,54
3352,00;42,50
3340,00;42,49
3328,00;42,48
3316,00;42,45
3304,00;42,41
3292,00;42,34
3280,00;42,22
3268,00;42,12
3256,00;42,05
3244,00;41,93
3232,00;41,83
3220,00;41,71
3208,00;41,63
3196,00;41,61
3184,00;41,67
3172,00;41,75
3160,00;41,87
3148,00;42,00
3136,00;42,14
3124,00;42,28
3112,00;42,39
3100,00;42,50
3088,00;42,57
3076,00;42,63
3064,00;42,69
3052,00;42,76
3040,00;42,83
3028,00;42,92
3016,00;43,05
3004,00;43,15
2992,00;43,27
2980,00;43,23
2968,00;42,87
2956,00;42,90
2944,00;43,17
2932,00;43,26
2920,00;43,20
2908,00;43,24
2896,00;43,37
2884,00;43,45
2872,00;43,54
2860,00;43,62
2848,00;43,70
2836,00;43,82
2824,00;43,92
2812,00;44,05
2800,00;44,17
2788,00;44,29
2776,00;44,41
2764,00;44,52
2752,00;44,64
2740,00;44,75
2728,00;44,87
2716,00;44,97
2704,00;45,08
2692,00;45,19
2680,00;45,31
2668,00;45,40
2656,00;45,55
2644,00;45,78
2632,00;46,00
2620,00;46,18
2608,00;46,34
2596,00;46,49
2584,00;46,62
2572,00;46,76
2560,00;46,87
2548,00;46,98
2536,00;47,09
2524,00;47,19
2512,00;47,29
2500,00;47,37
2488,00;47,47
2476,00;47,56
2464,00;47,64
2452,00;47,75
2440,00;47,84
2428,00;47,94
2416,00;48,02
2404,00;48,11
2392,00;48,17
2380,00;48,40
2368,00;48,60
2356,00;48,24
2344,00;48,39
2332,00;48,47
2320,00;48,53
2308,00;48,73
2296,00;48,92
2284,00;49,06
2272,00;49,23
2260,00;49,34
2248,00;49,46
2236,00;49,57
2224,00;49,69
2212,00;49,80
2200,00;49,88
2188,00;49,97
2176,00;50,12
2164,00;50,19
2152,00;50,38
2140,00;50,42
2128,00;50,46
2116,00;50,47
2104,00;50,55
2092,00;50,67
2080,00;50,72
2068,00;50,84
2056,00;50,93
2044,00;51,16
2032,00;51,30
2020,00;51,39
2008,00;51,46
1996,00;51,53
1984,00;51,63
1972,00;51,82
1960,00;51,94
1948,00;52,08
1936,00;52,21
1924,00;52,37
1912,00;52,52
1900,00;52,66
1888,00;52,83
1876,00;52,98
1864,00;53,15
1852,00;53,34
1840,00;53,52
1828,00;53,83
1816,00;53,85
1804,00;54,08
1792,00;54,34
1780,00;54,59
1768,00;54,83
1756,00;55,08
1744,00;55,32
1732,00;55,55
1720,00;55,27
1708,00;54,93
1696,00;54,47
1684,00;53,57
1672,00;51,69
1660,00;49,35
1648,00;47,26
1636,00;44,90
1624,00;42,98
1612,00;41,46
1600,00;41,11
1588,00;41,89
1576,00;42,98
1564,00;43,95
1552,00;45,34
1540,00;46,86
1528,00;47,73
1516,00;48,53
1504,00;49,35
1492,00;49,87
1480,00;49,97
1468,00;49,44
1456,00;48,07
1444,00;46,96
1432,00;46,51
1420,00;46,16
1408,00;46,34
1396,00;47,00
1384,00;46,81
1372,00;46,30
1360,00;46,65
1348,00;47,09
1336,00;47,27
1324,00;47,52
1312,00;47,63
1300,00;47,72
1288,00;47,84
1276,00;48,22
1264,00;48,28
1252,00;48,10
1240,00;47,95
1228,00;48,17
1216,00;48,39
1204,00;48,58
1192,00;49,10
1180,00;49,81
1168,00;50,26
1156,00;50,02
1144,00;50,28
1132,00;50,16
1120,00;49,39
1108,00;49,22
1096,00;49,13
1084,00;49,34
1072,00;49,92
1060,00;50,91
1048,00;51,13
1036,00;51,42
1024,00;51,03
1012,00;52,03
1000,00;53,84
988,00;54,97
976,00;55,50
964,00;54,14
952,00;50,43
940,00;47,28
928,00;47,13
916,00;47,03
904,00;47,15
892,00;47,66
880,00;48,26
868,00;48,20
856,00;48,77
844,00;49,38
832,00;49,66
820,00;49,49
808,00;48,34
796,00;48,27
784,00;48,20
772,00;47,52
760,00;47,03
748,00;46,75
736,00;46,22
724,00;45,50
712,00;44,82
700,00;44,55
688,00;44,30
676,00;43,98
664,00;43,53
652,00;43,20
640,00;42,64
628,00;41,58
616,00;41,10
604,00;41,40
592,00;41,28
580,00;40,95
568,00;40,54
556,00;39,68
544,00;39,16
532,00;39,21
520,00;39,91
508,00;40,90
500,00;39,97

File: SiO2-PDA-PDA.csv
Criado como novo conjunto de dados;Amostra 022 por Analyst data segunda-feira, outubro 28 2024
cm-1;%T
4000,00;101,14
3988,00;101,15
3976,00;101,16
3964,00;101,16
3952,00;101,17
3940,00;101,19
3928,00;101,20
3916,00;101,21
3904,00;101,23
3892,00;101,24
3880,00;101,29
3868,00;101,25
3856,00;101,27
3844,00;101,26
3832,00;101,29
3820,00;101,28
3808,00;101,27
3796,00;101,32
3784,00;101,27
3772,00;101,27
3760,00;101,29
3748,00;101,31
3736,00;101,32
3724,00;101,31
3712,00;101,28
3700,00;101,23
3688,00;101,14
3676,00;100,96
3664,00;100,65
3652,00;100,42
3640,00;100,17
3628,00;100,04
3616,00;99,89
3604,00;99,74
3592,00;99,62
3580,00;99,48
3568,00;99,35
3556,00;99,15
3544,00;98,94
3532,00;98,74
3520,00;98,54
3508,00;98,34
3496,00;98,12
3484,00;97,95
3472,00;97,77
3460,00;97,60
3448,00;97,45
3436,00;97,26
3424,00;97,15
3412,00;97,01
3400,00;96,89
3388,00;96,83
3376,00;96,77
3364,00;96,74
3352,00;96,73
3340,00;96,72
3328,00;96,74
3316,00;96,75
3304,00;96,77
3292,00;96,78
3280,00;96,79
3268,00;96,80
3256,00;96,83
3244,00;96,85
3232,00;96,91
3220,00;96,94
3208,00;97,01
3196,00;97,09
3184,00;97,17
3172,00;97,26
3160,00;97,35
3148,00;97,45
3136,00;97,55
3124,00;97,65
3112,00;97,77
3100,00;97,87
3088,00;97,99
3076,00;98,10
3064,00;98,20
3052,00;98,31
3040,00;98,43
3028,00;98,54
3016,00;98,67
3004,00;98,76
2992,00;98,87
2980,00;98,95
2968,00;99,02
2956,00;99,13
2944,00;99,22
2932,00;99,34
2920,00;99,46
2908,00;99,51
2896,00;99,58
2884,00;99,64
2872,00;99,74
2860,00;99,82
2848,00;99,90
2836,00;99,94
2824,00;99,99
2812,00;100,05
2800,00;100,10
2788,00;100,15
2776,00;100,19
2764,00;100,22
2752,00;100,26
2740,00;100,29
2728,00;100,32
2716,00;100,36
2704,00;100,40
2692,00;100,44
2680,00;100,48
2668,00;100,50
2656,00;100,43
2644,00;100,45
2632,00;100,51
2620,00;100,57
2608,00;100,62
2596,00;100,68
2584,00;100,74
2572,00;100,79
2560,00;100,84
2548,00;100,89
2536,00;100,93
2524,00;100,97
2512,00;101,00
2500,00;101,02
2488,00;101,05
2476,00;101,07
2464,00;101,09
2452,00;101,08
2440,00;101,16
2428,00;101,20
2416,00;101,24
2404,00;101,30
2392,00;101,32
2380,00;101,40
2368,00;101,39
2356,00;101,43
2344,00;101,28
2332,00;101,35
2320,00;101,09
2308,00;101,23
2296,00;101,19
2284,00;101,12
2272,00;101,33
2260,00;101,44
2248,00;101,55
2236,00;101,59
2224,00;101,74
2212,00;101,89
2200,00;102,00
2188,00;102,08
2176,00;102,40
2164,00;102,24
2152,00;103,05
2140,00;102,66
2128,00;102,42
2116,00;102,00
2104,00;101,98
2092,00;102,08
2080,00;101,88
2068,00;101,91
2056,00;101,85
2044,00;101,90
2032,00;102,03
2020,00;102,03
2008,00;101,96
1996,00;101,76
1984,00;101,55
1972,00;102,04
1960,00;102,09
1948,00;101,95
1936,00;101,91
1924,00;101,85
1912,00;101,72
1900,00;101,64
1888,00;101,55
1876,00;101,48
1864,00;101,45
1852,00;101,44
1840,00;101,45
1828,00;101,45
1816,00;101,46
1804,00;101,30
1792,00;101,20
1780,00;101,08
1768,00;100,92
1756,00;100,64
1744,00;100,33
1732,00;99,99
1720,00;99,73
1708,00;99,44
1696,00;99,08
1684,00;98,50
1672,00;97,80
1660,00;96,82
1648,00;95,74
1636,00;94,55
1624,00;93,81
1612,00;93,61
1600,00;93,75
1588,00;94,04
1576,00;94,34
1564,00;94,67
1552,00;94,83
1540,00;94,82
1528,00;94,46
1516,00;93,98
1504,00;93,86
1492,00;94,57
1480,00;95,37
1468,00;95,62
1456,00;95,68
1444,00;95,53
1432,00;95,80
1420,00;96,15
1408,00;96,12
1396,00;95,93
1384,00;95,68
1372,00;95,46
1360,00;95,20
1348,00;94,93
1336,00;94,85
1324,00;94,87
1312,00;94,47
1300,00;93,83
1288,00;93,23
1276,00;92,80
1264,00;92,07
1252,00;89,93
1240,00;86,31
1228,00;83,00
1216,00;80,33
1204,00;77,97
1192,00;75,79
1180,00;73,74
1168,00;71,76
1156,00;69,99
1144,00;68,38
1132,00;66,27
1120,00;61,82
1108,00;49,62
1096,00;36,35
1084,00;31,44
1072,00;31,27
1060,00;34,73
1048,00;43,16
1036,00;57,49
1024,00;73,13
1012,00;83,38
1000,00;87,94
988,00;88,46
976,00;85,55
964,00;82,64
952,00;81,41
940,00;81,91
928,00;83,78
916,00;86,27
904,00;88,26
892,00;89,51
880,00;90,29
868,00;90,67
856,00;90,70
844,00;89,89
832,00;87,26
820,00;83,90
808,00;81,24
796,00;80,10
784,00;81,26
772,00;84,72
760,00;85,88
748,00;85,98
736,00;86,08
724,00;86,13
712,00;86,20
700,00;86,15
688,00;86,03
676,00;85,92
664,00;85,72
652,00;85,39
640,00;84,98
628,00;84,40
616,00;83,80
604,00;82,97
592,00;81,82
580,00;80,55
568,00;79,51
556,00;78,59
544,00;77,96
532,00;78,43
520,00;77,94
508,00;76,91
500,00;75,16