Folder: FINAL_PROJECT_GREEN_HYDROGEN/FTIR/LNB_28-10-2024 (part 4)

File: SiO2-PDA.csv
Criado como novo conjunto de dados;Amostra 019 por Analyst data segunda-feira, outubro 28 2024
cm-1;%T
4000,00;101,70
3988,00;101,70
3976,00;101,69
3964,00;101,69
3952,00;101,69
3940,00;101,71
3928,00;101,71
3916,00;101,72
3904,00;101,70
3892,00;101,73
3880,00;101,75
3868,00;101,74
3856,00;101,75
3844,00;101,71
3832,00;101,75
3820,00;101,73
3808,00;101,71
3796,00;101,74
3784,00;101,69
3772,00;101,67
3760,00;101,67
3748,00;101,71
3736,00;101,62
3724,00;101,62
3712,00;101,56
3700,00;101,47
3688,00;101,27
3676,00;100,95
3664,00;100,52
3652,00;100,23
3640,00;99,96
3628,00;99,82
3616,00;99,65
3604,00;99,49
3592,00;99,35
3580,00;99,17
3568,00;98,96
3556,00;98,72
3544,00;98,43
3532,00;98,18
3520,00;97,90
3508,00;97,64
3496,00;97,35
3484,00;97,13
3472,00;96,90
3460,00;96,67
3448,00;96,50
3436,00;96,28
3424,00;96,17
3412,00;96,02
3400,00;95,92
3388,00;95,88
3376,00;95,86
3364,00;95,85
3352,00;95,86
3340,00;95,89
3328,00;95,94
3316,00;95,97
3304,00;95,99
3292,00;96,03
3280,00;96,07
3268,00;96,10
3256,00;96,15
3244,00;96,21
3232,00;96,28
3220,00;96,39
3208,00;96,51
3196,00;96,64
3184,00;96,78
3172,00;96,93
3160,00;97,07
3148,00;97,21
3136,00;97,35
3124,00;97,50
3112,00;97,65
3100,00;97,79
3088,00;97,94
3076,00;98,08
3064,00;98,23
3052,00;98,37
3040,00;98,51
3028,00;98,65
3016,00;98,79
3004,00;98,91
2992,00;99,00
2980,00;99,09
2968,00;99,24
2956,00;99,38
2944,00;99,49
2932,00;99,61
2920,00;99,74
2908,00;99,82
2896,00;99,92
2884,00;100,02
2872,00;100,13
2860,00;100,22
2848,00;100,31
2836,00;100,38
2824,00;100,45
2812,00;100,53
2800,00;100,59
2788,00;100,64
2776,00;100,69
2764,00;100,74
2752,00;100,79
2740,00;100,83
2728,00;100,87
2716,00;100,91
2704,00;100,95
2692,00;100,99
2680,00;101,02
2668,00;101,05
2656,00;100,93
2644,00;100,94
2632,00;101,00
2620,00;101,06
2608,00;101,12
2596,00;101,18
2584,00;101,23
2572,00;101,27
2560,00;101,32
2548,00;101,35
2536,00;101,39
2524,00;101,42
2512,00;101,43
2500,00;101,44
2488,00;101,46
2476,00;101,48
2464,00;101,47
2452,00;101,44
2440,00;101,49
2428,00;101,55
2416,00;101,58
2404,00;101,64
2392,00;101,64
2380,00;101,65
2368,00;101,63
2356,00;101,63
2344,00;101,46
2332,00;101,55
2320,00;101,25
2308,00;101,42
2296,00;101,35
2284,00;101,22
2272,00;101,47
2260,00;101,60
2248,00;101,74
2236,00;101,78
2224,00;101,94
2212,00;102,07
2200,00;102,19
2188,00;102,25
2176,00;102,62
2164,00;102,38
2152,00;103,49
2140,00;103,02
2128,00;102,73
2116,00;102,24
2104,00;102,24
2092,00;102,42
2080,00;102,20
2068,00;102,31
2056,00;102,29
2044,00;102,39
2032,00;102,57
2020,00;102,42
2008,00;102,26
1996,00;101,93
1984,00;101,68
1972,00;102,28
1960,00;102,36
1948,00;102,13
1936,00;102,07
1924,00;101,99
1912,00;101,79
1900,00;101,66
1888,00;101,55
1876,00;101,43
1864,00;101,40
1852,00;101,41
1840,00;101,45
1828,00;101,45
1816,00;101,51
1804,00;101,35
1792,00;101,29
1780,00;101,21
1768,00;101,13
1756,00;100,96
1744,00;100,78
1732,00;100,60
1720,00;100,42
1708,00;100,18
1696,00;99,90
1684,00;99,43
1672,00;98,90
1660,00;98,22
1648,00;97,50
1636,00;96,81
1624,00;96,59
1612,00;96,92
1600,00;97,52
1588,00;97,97
1576,00;98,27
1564,00;98,51
1552,00;98,61
1540,00;98,61
1528,00;98,44
1516,00;98,27
1504,00;98,27
1492,00;98,52
1480,00;98,76
1468,00;98,81
1456,00;98,79
1444,00;98,73
1432,00;98,85
1420,00;98,98
1408,00;98,93
1396,00;98,82
1384,00;98,69
1372,00;98,61
1360,00;98,50
1348,00;98,37
1336,00;98,26
1324,00;98,18
1312,00;97,86
1300,00;97,39
1288,00;96,79
1276,00;95,94
1264,00;94,28
1252,00;90,34
1240,00;84,85
1228,00;80,28
1216,00;76,69
1204,00;73,67
1192,00;70,91
1180,00;68,25
1168,00;65,77
1156,00;63,63
1144,00;61,71
1132,00;59,40
1120,00;54,51
1108,00;41,81
1096,00;28,93
1084,00;21,86
1072,00;18,25
1060,00;17,29
1048,00;20,37
1036,00;31,24
1024,00;50,79
1012,00;69,56
1000,00;80,31
988,00;82,66
976,00;78,62
964,00;74,68
952,00;72,99
940,00;73,55
928,00;76,19
916,00;80,12
904,00;83,78
892,00;86,64
880,00;88,37
868,00;89,28
856,00;89,50
844,00;88,14
832,00;83,96
820,00;78,94
808,00;74,86
796,00;73,00
784,00;74,85
772,00;80,80
760,00;83,06
748,00;83,43
736,00;83,79
724,00;84,07
712,00;84,24
700,00;84,34
688,00;84,36
676,00;84,29
664,00;84,16
652,00;83,84
640,00;83,43
628,00;82,91
616,00;82,05
604,00;80,89
592,00;79,54
580,00;77,93
568,00;76,34
556,00;74,98
544,00;74,53
532,00;74,99
520,00;74,91
508,00;74,22
500,00;70,12

File: SiO2-SH-500cm-1.csv
Criado como novo conjunto de dados;Amostra 017 por Analyst data segunda-feira, outubro 28 2024
cm-1;%T
4000,00;99,96
3988,00;99,97
3976,00;99,98
3964,00;99,98
3952,00;99,99
3940,00;100,01
3928,00;100,03
3916,00;100,04
3904,00;100,05
3892,00;100,06
3880,00;100,09
3868,00;100,09
3856,00;100,11
3844,00;100,10
3832,00;100,13
3820,00;100,13
3808,00;100,13
3796,00;100,16
3784,00;100,14
3772,00;100,14
3760,00;100,17
3748,00;100,19
3736,00;100,17
3724,00;100,17
3712,00;100,16
3700,00;100,13
3688,00;100,07
3676,00;99,96
3664,00;99,76
3652,00;99,65
3640,00;99,50
3628,00;99,43
3616,00;99,37
3604,00;99,27
3592,00;99,20
3580,00;99,12
3568,00;99,05
3556,00;98,92
3544,00;98,80
3532,00;98,71
3520,00;98,58
3508,00;98,49
3496,00;98,34
3484,00;98,26
3472,00;98,16
3460,00;98,09
3448,00;98,05
3436,00;97,98
3424,00;97,99
3412,00;97,99
3400,00;98,01
3388,00;98,08
3376,00;98,14
3364,00;98,20
3352,00;98,28
3340,00;98,34
3328,00;98,44
3316,00;98,52
3304,00;98,58
3292,00;98,66
3280,00;98,75
3268,00;98,81
3256,00;98,89
3244,00;98,96
3232,00;99,02
3220,00;99,10
3208,00;99,17
3196,00;99,24
3184,00;99,31
3172,00;99,38
3160,00;99,44
3148,00;99,50
3136,00;99,55
3124,00;99,62
3112,00;99,66
3100,00;99,72
3088,00;99,77
3076,00;99,82
3064,00;99,88
3052,00;99,92
3040,00;99,96
3028,00;100,00
3016,00;100,00
3004,00;100,00
2992,00;99,84
2980,00;99,39
2968,00;98,99
2956,00;98,59
2944,00;98,09
2932,00;96,48
2920,00;97,20
2908,00;98,20
2896,00;98,60
2884,00;98,65
2872,00;99,14
2860,00;99,07
2848,00;99,43
2836,00;99,89
2824,00;100,21
2812,00;100,32
2800,00;100,33
2788,00;100,37
2776,00;100,48
2764,00;100,54
2752,00;100,56
2740,00;100,58
2728,00;100,62
2716,00;100,64
2704,00;100,65
2692,00;100,65
2680,00;100,64
2668,00;100,64
2656,00;100,55
2644,00;100,56
2632,00;100,59
2620,00;100,63
2608,00;100,67
2596,00;100,68
2584,00;100,65
2572,00;100,51
2560,00;100,39
2548,00;100,45
2536,00;100,60
2524,00;100,74
2512,00;100,82
2500,00;100,89
2488,00;100,94
2476,00;100,98
2464,00;100,99
2452,00;100,97
2440,00;101,04
2428,00;101,08
2416,00;101,13
2404,00;101,19
2392,00;101,21
2380,00;101,23
2368,00;101,24
2356,00;101,25
2344,00;101,09
2332,00;101,21
2320,00;100,98
2308,00;101,13
2296,00;101,11
2284,00;101,03
2272,00;101,29
2260,00;101,40
2248,00;101,54
2236,00;101,60
2224,00;101,70
2212,00;101,79
2200,00;101,87
2188,00;101,87
2176,00;102,17
2164,00;102,01
2152,00;102,89
2140,00;102,54
2128,00;102,35
2116,00;101,93
2104,00;101,99
2092,00;102,16
2080,00;102,03
2068,00;102,26
2056,00;102,36
2044,00;102,73
2032,00;103,16
2020,00;103,18
2008,00;103,03
1996,00;102,60
1984,00;102,24
1972,00;102,63
1960,00;102,42
1948,00;102,05
1936,00;101,86
1924,00;101,74
1912,00;101,60
1900,00;101,50
1888,00;101,43
1876,00;101,35
1864,00;101,31
1852,00;101,27
1840,00;101,25
1828,00;101,22
1816,00;101,27
1804,00;101,16
1792,00;101,15
1780,00;101,15
1768,00;101,15
1756,00;101,13
1744,00;101,10
1732,00;101,07
1720,00;101,04
1708,00;101,00
1696,00;100,95
1684,00;100,83
1672,00;100,73
1660,00;100,58
1648,00;100,39
1636,00;100,17
1624,00;100,07
1612,00;100,19
1600,00;100,51
1588,00;100,71
1576,00;100,81
1564,00;100,87
1552,00;100,89
1540,00;100,92
1528,00;100,87
1516,00;100,86
1504,00;100,83
1492,00;100,76
1480,00;100,62
1468,00;100,49
1456,00;98,97
1444,00;98,61
1432,00;99,02
1420,00;99,46
1408,00;98,54
1396,00;99,46
1384,00;100,20
1372,00;100,34
1360,00;100,29
1348,00;99,00
1336,00;99,61
1324,00;100,05
1312,00;98,73
1300,00;98,61
1288,00;99,28
1276,00;98,36
1264,00;93,64
1252,00;92,92
1240,00;90,89
1228,00;91,30
1216,00;88,41
1204,00;83,36
1192,00;76,21
1180,00;71,59
1168,00;67,75
1156,00;63,78
1144,00;59,09
1132,00;54,54
1120,00;51,12
1108,00;47,40
1096,00;43,31
1084,00;40,68
1072,00;37,32
1060,00;33,89
1048,00;31,27
1036,00;29,58
1024,00;33,44
1012,00;43,54
1000,00;52,97
988,00;67,18
976,00;73,76
964,00;77,11
952,00;78,71
940,00;80,80
928,00;80,85
916,00;81,64
904,00;84,43
892,00;86,11
880,00;87,28
868,00;88,22
856,00;89,59
844,00;90,36
832,00;87,24
820,00;78,75
808,00;73,25
796,00;72,68
784,00;74,23
772,00;77,03
760,00;79,04
748,00;79,86
736,00;81,29
724,00;82,91
712,00;82,27
700,00;78,91
688,00;76,32
676,00;79,94
664,00;83,50
652,00;84,88
640,00;86,13
628,00;85,96
616,00;84,87
604,00;83,29
592,00;81,58
580,00;79,86
568,00;78,56
556,00;77,92
544,00;78,56
532,00;79,99
520,00;81,07
508,00;80,55
500,00;78,35

File: SiO2-SH.csv
Criado como novo conjunto de dados;Amostra 016 por Analyst data segunda-feira, outubro 28 2024
cm-1;%T
4000,00;99,98
3987,00;99,99
3974,00;100,00
3961,00;100,00
3948,00;100,02
3935,00;100,01
3922,00;100,04
3909,00;100,04
3896,00;100,08
3883,00;100,08
3870,00;100,12
3857,00;100,11
3844,00;100,11
3831,00;100,14
3818,00;100,16
3805,00;100,14
3792,00;100,15
3779,00;100,16
3766,00;100,18
3753,00;100,19
3740,00;100,20
3727,00;100,19
3714,00;100,18
3701,00;100,15
3688,00;100,09
3675,00;99,97
3662,00;99,74
3649,00;99,63
3636,00;99,49
3623,00;99,42
3610,00;99,35
3597,00;99,26
3584,00;99,18
3571,00;99,08
3558,00;98,97
3545,00;98,84
3532,00;98,74
3519,00;98,61
3506,00;98,50
3493,00;98,36
3480,00;98,25
3467,00;98,15
3454,00;98,12
3441,00;98,07
3428,00;98,02
3415,00;98,04
3402,00;98,05
3389,00;98,10
3376,00;98,17
3363,00;98,24
3350,00;98,31
3337,00;98,39
3324,00;98,49
3311,00;98,57
3298,00;98,66
3285,00;98,74
3272,00;98,80
3259,00;98,89
3246,00;98,96
3233,00;99,03
3220,00;99,11
3207,00;99,19
3194,00;99,27
3181,00;99,34
3168,00;99,41
3155,00;99,47
3142,00;99,54
3129,00;99,60
3116,00;99,64
3103,00;99,73
3090,00;99,77
3077,00;99,83
3064,00;99,89
3051,00;99,94
3038,00;99,98
3025,00;100,01
3012,00;100,01
2999,00;99,97
2986,00;99,69
2973,00;99,15
2960,00;98,71
2947,00;98,46
2934,00;96,69
2921,00;97,19
2908,00;98,25
2895,00;98,63
2882,00;98,80
2869,00;99,13
2856,00;99,16
2843,00;99,64
2830,00;100,09
2817,00;100,29
2804,00;100,33
2791,00;100,36
2778,00;100,47
2765,00;100,53
2752,00;100,56
2739,00;100,59
2726,00;100,62
2713,00;100,65
2700,00;100,65
2687,00;100,65
2674,00;100,64
2661,00;100,59
2648,00;100,55
2635,00;100,58
2622,00;100,62
2609,00;100,67
2596,00;100,68
2583,00;100,65
2570,00;100,48
2557,00;100,39
2544,00;100,51
2531,00;100,68
2518,00;100,78
2505,00;100,87
2492,00;100,91
2479,00;100,97
2466,00;100,99
2453,00;100,98
2440,00;101,04
2427,00;101,09
2414,00;101,13
2401,00;101,20
2388,00;101,23
2375,00;101,25
2362,00;101,24
2349,00;101,17
2336,00;101,20
2323,00;100,84
2310,00;101,13
2297,00;101,12
2284,00;101,03
2271,00;101,29
2258,00;101,41
2245,00;101,53
2232,00;101,60
2219,00;101,73
2206,00;101,82
2193,00;101,88
2180,00;102,18
2167,00;101,98
2154,00;103,13
2141,00;102,58
2128,00;102,36
2115,00;101,91
2102,00;101,99
2089,00;102,07
2076,00;102,08
2063,00;102,32
2050,00;102,18
2037,00;102,88
2024,00;103,21
2011,00;103,01
1998,00;102,69
1985,00;102,25
1972,00;102,63
1959,00;102,42
1946,00;102,00
1933,00;101,82
1920,00;101,66
1907,00;101,56
1894,00;101,47
1881,00;101,40
1868,00;101,34
1855,00;101,28
1842,00;101,27
1829,00;101,23
1816,00;101,28
1803,00;101,16
1790,00;101,16
1777,00;101,17
1764,00;101,14
1751,00;101,11
1738,00;101,09
1725,00;101,06
1712,00;101,03
1699,00;100,92
1686,00;100,86
1673,00;100,73
1660,00;100,58
1647,00;100,36
1634,00;100,13
1621,00;100,07
1608,00;100,29
1595,00;100,61
1582,00;100,77
1569,00;100,84
1556,00;100,89
1543,00;100,88
1530,00;100,88
1517,00;100,87
1504,00;100,83
1491,00;100,75
1478,00;100,63
1465,00;100,33
1452,00;98,88
1439,00;98,78
1426,00;99,10
1413,00;99,05
1400,00;99,08
1387,00;100,07
1374,00;100,37
1361,00;100,31
1348,00;99,03
1335,00;99,73
1322,00;100,00
1309,00;98,40
1296,00;99,00
1283,00;99,16
1270,00;96,57
1257,00;92,80
1244,00;91,72
1231,00;91,54
1218,00;89,20
1205,00;84,01
1192,00;76,41
1179,00;71,60
1166,00;67,31
1153,00;63,01
1140,00;57,79
1127,00;53,35
1114,00;49,86
1101,00;45,24
1088,00;41,97
1075,00;38,69
1062,00;34,92
1049,00;32,03
1036,00;30,20
1023,00;34,86
1010,00;45,93
997,00;57,36
984,00;70,51
971,00;76,20
958,00;78,26
945,00;80,37
932,00;81,51
919,00;81,45
906,00;84,37
893,00;86,33
880,00;87,59
867,00;88,56
854,00;90,09
841,00;90,32
828,00;84,95
815,00;76,08
802,00;72,96
789,00;73,86
776,00;76,43
763,00;79,04
750,00;80,08
737,00;81,46
724,00;83,18
711,00;82,39
698,00;78,42
685,00;77,36
672,00;81,44
659,00;84,66
646,00;85,68
633,00;86,40
620,00;85,53
607,00;83,91
594,00;82,18
581,00;80,27
568,00;78,89
555,00;78,24
542,00;78,89
529,00;80,52
516,00;81,44
503,00;79,79
490,00;72,36
477,00;54,87
464,00;91,44
451,00;98,04
438,00;238,02
425,00;83,79
412,00;312,83
400,00;144,22