Folder: FINAL_PROJECT_GREEN_HYDROGEN/FTIR/LNB_28-10-2024 (part 2)

File: MoS2(1)-2H.csv
Criado como novo conjunto de dados;Amostra 004 por Analyst data segunda-feira, outubro 28 2024
cm-1;%T
4000,00;27,10
3988,00;27,08
3976,00;27,07
3964,00;27,07
3952,00;27,05
3940,00;27,01
3928,00;26,98
3916,00;26,96
3904,00;26,95
3892,00;26,93
3880,00;26,83
3868,00;26,88
3856,00;26,90
3844,00;26,95
3832,00;26,83
3820,00;26,87
3808,00;26,99
3796,00;26,84
3784,00;27,01
3772,00;27,02
3760,00;26,94
3748,00;26,85
3736,00;26,91
3724,00;26,96
3712,00;27,01
3700,00;27,01
3688,00;26,91
3676,00;26,92
3664,00;26,95
3652,00;26,90
3640,00;26,92
3628,00;26,74
3616,00;26,68
3604,00;26,67
3592,00;26,60
3580,00;26,55
3568,00;26,48
3556,00;26,44
3544,00;26,31
3532,00;26,31
3520,00;26,21
3508,00;26,17
3496,00;26,13
3484,00;26,08
3472,00;26,03
3460,00;25,97
3448,00;25,92
3436,00;25,88
3424,00;25,81
3412,00;25,77
3400,00;25,73
3388,00;25,66
3376,00;25,63
3364,00;25,58
3352,00;25,56
3340,00;25,52
3328,00;25,46
3316,00;25,41
3304,00;25,36
3292,00;25,29
3280,00;25,21
3268,00;25,14
3256,00;25,07
3244,00;25,00
3232,00;24,96
3220,00;24,90
3208,00;24,86
3196,00;24,82
3184,00;24,79
3172,00;24,77
3160,00;24,76
3148,00;24,75
3136,00;24,73
3124,00;24,72
3112,00;24,69
3100,00;24,66
3088,00;24,63
3076,00;24,58
3064,00;24,55
3052,00;24,54
3040,00;24,53
3028,00;24,51
3016,00;24,55
3004,00;24,54
2992,00;24,56
2980,00;24,57
2968,00;24,52
2956,00;24,40
2944,00;24,39
2932,00;24,35
2920,00;24,11
2908,00;24,08
2896,00;24,22
2884,00;24,28
2872,00;24,33
2860,00;24,30
2848,00;24,23
2836,00;24,31
2824,00;24,40
2812,00;24,45
2800,00;24,49
2788,00;24,52
2776,00;24,55
2764,00;24,57
2752,00;24,59
2740,00;24,60
2728,00;24,62
2716,00;24,63
2704,00;24,65
2692,00;24,66
2680,00;24,68
2668,00;24,68
2656,00;24,70
2644,00;24,71
2632,00;24,73
2620,00;24,73
2608,00;24,74
2596,00;24,73
2584,00;24,75
2572,00;24,74
2560,00;24,74
2548,00;24,73
2536,00;24,72
2524,00;24,71
2512,00;24,70
2500,00;24,70
2488,00;24,68
2476,00;24,68
2464,00;24,67
2452,00;24,67
2440,00;24,66
2428,00;24,65
2416,00;24,64
2404,00;24,64
2392,00;24,63
2380,00;24,68
2368,00;24,60
2356,00;24,52
2344,00;24,68
2332,00;24,44
2320,00;24,40
2308,00;24,50
2296,00;24,54
2284,00;24,56
2272,00;24,59
2260,00;24,57
2248,00;24,58
2236,00;24,58
2224,00;24,57
2212,00;24,55
2200,00;24,53
2188,00;24,55
2176,00;24,54
2164,00;24,55
2152,00;24,58
2140,00;24,56
2128,00;24,53
2116,00;24,52
2104,00;24,51
2092,00;24,53
2080,00;24,55
2068,00;24,56
2056,00;24,60
2044,00;24,63
2032,00;24,66
2020,00;24,64
2008,00;24,64
1996,00;24,60
1984,00;24,64
1972,00;24,72
1960,00;24,71
1948,00;24,68
1936,00;24,69
1924,00;24,69
1912,00;24,70
1900,00;24,73
1888,00;24,73
1876,00;24,76
1864,00;24,75
1852,00;24,80
1840,00;24,79
1828,00;24,81
1816,00;24,84
1804,00;24,86
1792,00;24,86
1780,00;24,87
1768,00;24,82
1756,00;24,83
1744,00;24,75
1732,00;24,75
1720,00;24,59
1708,00;24,50
1696,00;24,33
1684,00;24,38
1672,00;24,31
1660,00;24,25
1648,00;24,12
1636,00;24,03
1624,00;23,96
1612,00;23,98
1600,00;24,07
1588,00;24,19
1576,00;24,31
1564,00;24,39
1552,00;24,50
1540,00;24,52
1528,00;24,67
1516,00;24,68
1504,00;24,78
1492,00;24,85
1480,00;24,76
1468,00;24,35
1456,00;23,79
1444,00;23,43
1432,00;23,10
1420,00;23,10
1408,00;23,41
1396,00;23,79
1384,00;24,10
1372,00;24,25
1360,00;24,41
1348,00;24,60
1336,00;24,69
1324,00;24,86
1312,00;24,94
1300,00;25,04
1288,00;25,11
1276,00;25,09
1264,00;24,75
1252,00;24,40
1240,00;23,85
1228,00;23,24
1216,00;22,73
1204,00;22,36
1192,00;22,04
1180,00;21,71
1168,00;21,35
1156,00;21,06
1144,00;20,63
1132,00;20,28
1120,00;20,05
1108,00;20,02
1096,00;20,18
1084,00;20,38
1072,00;20,53
1060,00;20,57
1048,00;20,82
1036,00;21,09
1024,00;21,53
1012,00;21,87
1000,00;22,01
988,00;21,99
976,00;21,69
964,00;21,56
952,00;21,32
940,00;21,63
928,00;22,11
916,00;22,21
904,00;22,28
892,00;22,51
880,00;22,67
868,00;22,89
856,00;23,13
844,00;23,32
832,00;23,38
820,00;23,22
808,00;22,90
796,00;22,65
784,00;22,26
772,00;21,74
760,00;21,21
748,00;20,83
736,00;20,53
724,00;20,22
712,00;20,03
700,00;19,82
688,00;19,66
676,00;19,11
664,00;18,41
652,00;17,94
640,00;17,32
628,00;16,41
616,00;15,67
604,00;15,03
592,00;14,51
580,00;14,34
568,00;14,29
556,00;14,25
544,00;14,13
532,00;13,58
520,00;13,16
508,00;11,99
500,00;9,85

File: MoS2(1)-3H.csv
Criado como novo conjunto de dados;Amostra 005 por Analyst data segunda-feira, outubro 28 2024
cm-1;%T
4000,00;30,92
3988,00;30,90
3976,00;30,90
3964,00;30,90
3952,00;30,89
3940,00;30,84
3928,00;30,82
3916,00;30,80
3904,00;30,81
3892,00;30,78
3880,00;30,68
3868,00;30,76
3856,00;30,75
3844,00;30,83
3832,00;30,70
3820,00;30,76
3808,00;30,87
3796,00;30,72
3784,00;30,90
3772,00;30,92
3760,00;30,87
3748,00;30,79
3736,00;30,83
3724,00;30,86
3712,00;30,92
3700,00;30,89
3688,00;30,82
3676,00;30,82
3664,00;30,81
3652,00;30,76
3640,00;30,73
3628,00;30,52
3616,00;30,46
3604,00;30,38
3592,00;30,28
3580,00;30,22
3568,00;30,14
3556,00;30,04
3544,00;29,90
3532,00;29,87
3520,00;29,73
3508,00;29,68
3496,00;29,61
3484,00;29,54
3472,00;29,47
3460,00;29,38
3448,00;29,32
3436,00;29,25
3424,00;29,18
3412,00;29,12
3400,00;29,08
3388,00;28,99
3376,00;28,95
3364,00;28,88
3352,00;28,84
3340,00;28,78
3328,00;28,71
3316,00;28,62
3304,00;28,55
3292,00;28,46
3280,00;28,35
3268,00;28,26
3256,00;28,20
3244,00;28,12
3232,00;28,08
3220,00;28,04
3208,00;28,01
3196,00;28,00
3184,00;28,01
3172,00;28,02
3160,00;28,04
3148,00;28,06
3136,00;28,09
3124,00;28,10
3112,00;28,09
3100,00;28,09
3088,00;28,08
3076,00;28,04
3064,00;28,02
3052,00;28,03
3040,00;28,04
3028,00;28,05
3016,00;28,10
3004,00;28,12
2992,00;28,16
2980,00;28,19
2968,00;28,15
2956,00;28,06
2944,00;28,05
2932,00;28,06
2920,00;27,82
2908,00;27,78
2896,00;27,94
2884,00;28,02
2872,00;28,07
2860,00;28,07
2848,00;28,00
2836,00;28,08
2824,00;28,18
2812,00;28,24
2800,00;28,29
2788,00;28,33
2776,00;28,37
2764,00;28,39
2752,00;28,41
2740,00;28,44
2728,00;28,46
2716,00;28,48
2704,00;28,49
2692,00;28,51
2680,00;28,53
2668,00;28,53
2656,00;28,57
2644,00;28,62
2632,00;28,67
2620,00;28,70
2608,00;28,73
2596,00;28,75
2584,00;28,76
2572,00;28,77
2560,00;28,78
2548,00;28,78
2536,00;28,78
2524,00;28,78
2512,00;28,77
2500,00;28,77
2488,00;28,77
2476,00;28,75
2464,00;28,75
2452,00;28,75
2440,00;28,75
2428,00;28,74
2416,00;28,74
2404,00;28,73
2392,00;28,73
2380,00;28,86
2368,00;28,85
2356,00;28,51
2344,00;28,81
2332,00;28,63
2320,00;28,62
2308,00;28,66
2296,00;28,70
2284,00;28,73
2272,00;28,76
2260,00;28,76
2248,00;28,78
2236,00;28,80
2224,00;28,80
2212,00;28,80
2200,00;28,82
2188,00;28,80
2176,00;28,79
2164,00;28,81
2152,00;28,84
2140,00;28,82
2128,00;28,80
2116,00;28,79
2104,00;28,80
2092,00;28,84
2080,00;28,85
2068,00;28,88
2056,00;28,90
2044,00;28,95
2032,00;28,98
2020,00;28,99
2008,00;28,99
1996,00;29,00
1984,00;29,03
1972,00;29,08
1960,00;29,07
1948,00;29,06
1936,00;29,08
1924,00;29,09
1912,00;29,12
1900,00;29,13
1888,00;29,13
1876,00;29,17
1864,00;29,15
1852,00;29,22
1840,00;29,21
1828,00;29,23
1816,00;29,25
1804,00;29,26
1792,00;29,26
1780,00;29,25
1768,00;29,20
1756,00;29,20
1744,00;29,08
1732,00;29,04
1720,00;28,85
1708,00;28,73
1696,00;28,50
1684,00;28,46
1672,00;28,29
1660,00;28,14
1648,00;28,01
1636,00;28,00
1624,00;28,00
1612,00;28,05
1600,00;28,17
1588,00;28,33
1576,00;28,48
1564,00;28,57
1552,00;28,70
1540,00;28,71
1528,00;28,89
1516,00;28,88
1504,00;28,99
1492,00;29,09
1480,00;29,04
1468,00;28,73
1456,00;28,30
1444,00;28,10
1432,00;27,90
1420,00;27,92
1408,00;28,18
1396,00;28,45
1384,00;28,70
1372,00;28,77
1360,00;28,88
1348,00;29,04
1336,00;29,13
1324,00;29,28
1312,00;29,33
1300,00;29,41
1288,00;29,43
1276,00;29,34
1264,00;28,89
1252,00;28,47
1240,00;27,90
1228,00;27,36
1216,00;26,97
1204,00;26,72
1192,00;26,50
1180,00;26,23
1168,00;25,89
1156,00;25,66
1144,00;25,27
1132,00;24,95
1120,00;24,81
1108,00;24,91
1096,00;25,18
1084,00;25,38
1072,00;25,39
1060,00;25,27
1048,00;25,53
1036,00;25,96
1024,00;26,42
1012,00;26,69
1000,00;26,80
988,00;26,65
976,00;26,28
964,00;26,26
952,00;26,18
940,00;26,58
928,00;27,07
916,00;27,17
904,00;27,27
892,00;27,44
880,00;27,51
868,00;27,68
856,00;27,94
844,00;28,10
832,00;28,14
820,00;27,96
808,00;27,66
796,00;27,30
784,00;26,77
772,00;26,12
760,00;25,42
748,00;24,88
736,00;24,41
724,00;23,97
712,00;23,60
700,00;23,26
688,00;22,87
676,00;22,12
664,00;21,33
652,00;20,73
640,00;19,89
628,00;18,96
616,00;18,27
604,00;17,72
592,00;17,28
580,00;17,08
568,00;16,78
556,00;16,47
544,00;16,07
532,00;15,80
520,00;15,97
508,00;15,54
500,00;15,22

File: MoS2(1)-4H.csv
Criado como novo conjunto de dados;Amostra 006 por Analyst data segunda-feira, outubro 28 2024
cm-1;%T
4000,00;27,79
3988,00;27,77
3976,00;27,77
3964,00;27,77
3952,00;27,77
3940,00;27,72
3928,00;27,71
3916,00;27,68
3904,00;27,69
3892,00;27,67
3880,00;27,59
3868,00;27,64
3856,00;27,64
3844,00;27,71
3832,00;27,60
3820,00;27,65
3808,00;27,73
3796,00;27,62
3784,00;27,77
3772,00;27,78
3760,00;27,73
3748,00;27,65
3736,00;27,72
3724,00;27,76
3712,00;27,79
3700,00;27,77
3688,00;27,69
3676,00;27,68
3664,00;27,68
3652,00;27,63
3640,00;27,59
3628,00;27,41
3616,00;27,33
3604,00;27,26
3592,00;27,15
3580,00;27,06
3568,00;26,97
3556,00;26,86
3544,00;26,73
3532,00;26,68
3520,00;26,56
3508,00;26,49
3496,00;26,42
3484,00;26,33
3472,00;26,27
3460,00;26,18
3448,00;26,12
3436,00;26,06
3424,00;25,97
3412,00;25,92
3400,00;25,86
3388,00;25,79
3376,00;25,74
3364,00;25,69
3352,00;25,65
3340,00;25,60
3328,00;25,54
3316,00;25,47
3304,00;25,41
3292,00;25,34
3280,00;25,24
3268,00;25,17
3256,00;25,12
3244,00;25,06
3232,00;25,02
3220,00;24,97
3208,00;24,94
3196,00;24,93
3184,00;24,93
3172,00;24,93
3160,00;24,95
3148,00;24,96
3136,00;24,97
3124,00;24,97
3112,00;24,96
3100,00;24,96
3088,00;24,95
3076,00;24,91
3064,00;24,90
3052,00;24,90
3040,00;24,91
3028,00;24,91
3016,00;24,96
3004,00;24,96
2992,00;24,99
2980,00;25,01
2968,00;24,97
2956,00;24,88
2944,00;24,87
2932,00;24,87
2920,00;24,64
2908,00;24,56
2896,00;24,74
2884,00;24,83
2872,00;24,89
2860,00;24,88
2848,00;24,82
2836,00;24,89
2824,00;24,99
2812,00;25,05
2800,00;25,10
2788,00;25,13
2776,00;25,16
2764,00;25,19
2752,00;25,21
2740,00;25,23
2728,00;25,26
2716,00;25,27
2704,00;25,29
2692,00;25,31
2680,00;25,34
2668,00;25,34
2656,00;25,36
2644,00;25,39
2632,00;25,43
2620,00;25,45
2608,00;25,46
2596,00;25,48
2584,00;25,49
2572,00;25,49
2560,00;25,50
2548,00;25,50
2536,00;25,50
2524,00;25,50
2512,00;25,50
2500,00;25,48
2488,00;25,48
2476,00;25,47
2464,00;25,47
2452,00;25,46
2440,00;25,46
2428,00;25,46
2416,00;25,45
2404,00;25,46
2392,00;25,44
2380,00;25,48
2368,00;25,42
2356,00;25,31
2344,00;25,49
2332,00;25,26
2320,00;25,24
2308,00;25,34
2296,00;25,38
2284,00;25,40
2272,00;25,44
2260,00;25,43
2248,00;25,44
2236,00;25,45
2224,00;25,44
2212,00;25,46
2200,00;25,44
2188,00;25,44
2176,00;25,45
2164,00;25,46
2152,00;25,47
2140,00;25,45
2128,00;25,44
2116,00;25,41
2104,00;25,42
2092,00;25,45
2080,00;25,44
2068,00;25,47
2056,00;25,49
2044,00;25,54
2032,00;25,55
2020,00;25,59
2008,00;25,61
1996,00;25,55
1984,00;25,60
1972,00;25,65
1960,00;25,68
1948,00;25,64
1936,00;25,64
1924,00;25,64
1912,00;25,65
1900,00;25,67
1888,00;25,67
1876,00;25,70
1864,00;25,69
1852,00;25,75
1840,00;25,74
1828,00;25,75
1816,00;25,77
1804,00;25,79
1792,00;25,78
1780,00;25,79
1768,00;25,74
1756,00;25,73
1744,00;25,60
1732,00;25,56
1720,00;25,37
1708,00;25,22
1696,00;25,01
1684,00;24,93
1672,00;24,75
1660,00;24,60
1648,00;24,42
1636,00;24,35
1624,00;24,31
1612,00;24,35
1600,00;24,48
1588,00;24,64
1576,00;24,79
1564,00;24,89
1552,00;25,03
1540,00;25,05
1528,00;25,21
1516,00;25,22
1504,00;25,34
1492,00;25,41
1480,00;25,35
1468,00;25,08
1456,00;24,66
1444,00;24,41
1432,00;24,22
1420,00;24,26
1408,00;24,51
1396,00;24,78
1384,00;24,99
1372,00;25,04
1360,00;25,12
1348,00;25,24
1336,00;25,32
1324,00;25,45
1312,00;25,49
1300,00;25,56
1288,00;25,56
1276,00;25,42
1264,00;24,91
1252,00;24,40
1240,00;23,69
1228,00;23,05
1216,00;22,59
1204,00;22,28
1192,00;22,03
1180,00;21,74
1168,00;21,34
1156,00;21,05
1144,00;20,64
1132,00;20,26
1120,00;20,06
1108,00;20,19
1096,00;20,50
1084,00;20,73
1072,00;20,71
1060,00;20,48
1048,00;20,77
1036,00;21,34
1024,00;21,75
1012,00;21,86
1000,00;21,96
988,00;21,80
976,00;21,42
964,00;21,50
952,00;21,52
940,00;22,03
928,00;22,58
916,00;22,72
904,00;22,86
892,00;23,01
880,00;23,09
868,00;23,23
856,00;23,48
844,00;23,63
832,00;23,67
820,00;23,46
808,00;23,13
796,00;22,72
784,00;22,10
772,00;21,34
760,00;20,57
748,00;19,92
736,00;19,40
724,00;18,89
712,00;18,47
700,00;18,05
688,00;17,61
676,00;16,88
664,00;16,05
652,00;15,30
640,00;14,36
628,00;13,35
616,00;12,68
604,00;12,14
592,00;11,73
580,00;11,60
568,00;11,40
556,00;11,37
544,00;10,96
532,00;10,64
520,00;10,45
508,00;9,96
500,00;10,39

File: MoS2(1)-5H.csv
Criado como novo conjunto de dados;Amostra 007 por Analyst data segunda-feira, outubro 28 2024
cm-1;%T
4000,00;58,74
3988,00;58,72
3976,00;58,68
3964,00;58,65
3952,00;58,54
3940,00;58,50
3928,00;58,32
3916,00;58,38
3904,00;57,70
3892,00;58,19
3880,00;58,12
3868,00;57,69
3856,00;57,15
3844,00;58,10
3832,00;57,99
3820,00;57,66
3808,00;58,10
3796,00;58,28
3784,00;58,52
3772,00;58,33
3760,00;58,13
3748,00;56,98
3736,00;57,22
3724,00;58,05
3712,00;57,78
3700,00;58,53
3688,00;57,95
3676,00;57,45
3664,00;58,81
3652,00;57,54
3640,00;58,76
3628,00;57,95
3616,00;57,78
3604,00;58,37
3592,00;58,25
3580,00;58,59
3568,00;57,86
3556,00;58,50
3544,00;58,28
3532,00;58,42
3520,00;58,38
3508,00;58,37
3496,00;58,40
3484,00;58,33
3472,00;58,38
3460,00;58,34
3448,00;58,25
3436,00;58,32
3424,00;58,28
3412,00;58,28
3400,00;58,23
3388,00;58,23
3376,00;58,22
3364,00;58,20
3352,00;58,21
3340,00;58,21
3328,00;58,23
3316,00;58,28
3304,00;58,31
3292,00;58,32
3280,00;58,34
3268,00;58,38
3256,00;58,37
3244,00;58,39
3232,00;58,40
3220,00;58,38
3208,00;58,37
3196,00;58,33
3184,00;58,30
3172,00;58,27
3160,00;58,22
3148,00;58,17
3136,00;58,12
3124,00;58,04
3112,00;58,02
3100,00;57,98
3088,00;57,98
3076,00;57,96
3064,00;57,92
3052,00;57,91
3040,00;57,90
3028,00;57,85
3016,00;57,83
3004,00;57,81
2992,00;57,79
2980,00;57,75
2968,00;57,69
2956,00;57,63
2944,00;57,56
2932,00;57,54
2920,00;57,39
2908,00;57,29
2896,00;57,37
2884,00;57,40
2872,00;57,41
2860,00;57,40
2848,00;57,37
2836,00;57,37
2824,00;57,42
2812,00;57,43
2800,00;57,44
2788,00;57,44
2776,00;57,44
2764,00;57,44
2752,00;57,44
2740,00;57,44
2728,00;57,45
2716,00;57,46
2704,00;57,46
2692,00;57,47
2680,00;57,47
2668,00;57,47
2656,00;57,46
2644,00;57,55
2632,00;57,67
2620,00;57,76
2608,00;57,83
2596,00;57,89
2584,00;57,94
2572,00;57,98
2560,00;58,01
2548,00;58,03
2536,00;58,05
2524,00;58,07
2512,00;58,07
2500,00;58,08
2488,00;58,10
2476,00;58,11
2464,00;58,11
2452,00;58,10
2440,00;58,13
2428,00;58,16
2416,00;58,17
2404,00;58,20
2392,00;58,18
2380,00;58,10
2368,00;58,11
2356,00;58,15
2344,00;57,81
2332,00;58,18
2320,00;58,20
2308,00;58,28
2296,00;58,17
2284,00;58,10
2272,00;58,20
2260,00;58,26
2248,00;58,32
2236,00;58,34
2224,00;58,37
2212,00;58,39
2200,00;58,41
2188,00;58,36
2176,00;58,47
2164,00;58,25
2152,00;58,90
2140,00;58,80
2128,00;58,83
2116,00;58,62
2104,00;58,61
2092,00;58,72
2080,00;58,61
2068,00;58,66
2056,00;58,66
2044,00;58,64
2032,00;58,83
2020,00;58,89
2008,00;58,96
1996,00;58,94
1984,00;58,84
1972,00;59,18
1960,00;59,31
1948,00;59,24
1936,00;59,29
1924,00;59,28
1912,00;59,28
1900,00;59,30
1888,00;59,32
1876,00;59,35
1864,00;59,38
1852,00;59,38
1840,00;59,42
1828,00;59,38
1816,00;59,50
1804,00;59,36
1792,00;59,38
1780,00;59,37
1768,00;59,41
1756,00;59,33
1744,00;59,24
1732,00;59,19
1720,00;59,18
1708,00;59,06
1696,00;59,10
1684,00;58,89
1672,00;58,91
1660,00;58,92
1648,00;58,68
1636,00;58,58
1624,00;58,48
1612,00;58,51
1600,00;58,59
1588,00;58,68
1576,00;58,72
1564,00;58,80
1552,00;58,91
1540,00;58,98
1528,00;59,06
1516,00;59,15
1504,00;59,18
1492,00;59,22
1480,00;59,21
1468,00;59,03
1456,00;58,81
1444,00;58,61
1432,00;58,50
1420,00;58,56
1408,00;58,76
1396,00;58,98
1384,00;59,12
1372,00;59,16
1360,00;59,26
1348,00;59,37
1336,00;59,52
1324,00;59,63
1312,00;59,72
1300,00;59,82
1288,00;59,87
1276,00;59,83
1264,00;59,51
1252,00;59,27
1240,00;58,79
1228,00;58,25
1216,00;57,77
1204,00;57,36
1192,00;57,02
1180,00;56,67
1168,00;56,21
1156,00;55,83
1144,00;55,43
1132,00;55,12
1120,00;54,92
1108,00;54,93
1096,00;55,17
1084,00;55,47
1072,00;55,70
1060,00;55,87
1048,00;56,22
1036,00;56,71
1024,00;57,26
1012,00;57,60
1000,00;57,73
988,00;57,64
976,00;57,38
964,00;57,41
952,00;57,40
940,00;57,68
928,00;58,11
916,00;58,36
904,00;58,59
892,00;58,84
880,00;58,97
868,00;59,11
856,00;59,28
844,00;59,34
832,00;59,30
820,00;59,04
808,00;58,65
796,00;58,21
784,00;57,53
772,00;56,77
760,00;56,05
748,00;55,50
736,00;55,02
724,00;54,56
712,00;54,18
700,00;53,77
688,00;53,36
676,00;52,72
664,00;52,24
652,00;51,49
640,00;50,81
628,00;49,95
616,00;49,20
604,00;48,55
592,00;47,80
580,00;47,53
568,00;47,68
556,00;48,08
544,00;48,44
532,00;47,59
520,00;46,11
508,00;43,83
500,00;43,16

File: MoS2(1)-10H.csv
Criado como novo conjunto de dados;Amostra 008 por Analyst data segunda-feira, outubro 28 2024
cm-1;%T
4000,00;34,98
3988,00;34,97
3976,00;34,98
3964,00;34,98
3952,00;34,99
3940,00;34,95
3928,00;34,95
3916,00;34,93
3904,00;34,96
3892,00;34,94
3880,00;34,87
3868,00;34,94
3856,00;34,94
3844,00;35,03
3832,00;34,94
3820,00;35,01
3808,00;35,09
3796,00;35,00
3784,00;35,15
3772,00;35,18
3760,00;35,17
3748,00;35,12
3736,00;35,20
3724,00;35,23
3712,00;35,30
3700,00;35,28
3688,00;35,22
3676,00;35,23
3664,00;35,21
3652,00;35,16
3640,00;35,10
3628,00;34,91
3616,00;34,78
3604,00;34,66
3592,00;34,50
3580,00;34,36
3568,00;34,24
3556,00;34,08
3544,00;33,88
3532,00;33,82
3520,00;33,65
3508,00;33,55
3496,00;33,44
3484,00;33,35
3472,00;33,25
3460,00;33,14
3448,00;33,06
3436,00;32,97
3424,00;32,88
3412,00;32,81
3400,00;32,75
3388,00;32,67
3376,00;32,63
3364,00;32,58
3352,00;32,55
3340,00;32,52
3328,00;32,48
3316,00;32,45
3304,00;32,42
3292,00;32,39
3280,00;32,35
3268,00;32,32
3256,00;32,29
3244,00;32,25
3232,00;32,23
3220,00;32,20
3208,00;32,19
3196,00;32,18
3184,00;32,19
3172,00;32,19
3160,00;32,21
3148,00;32,22
3136,00;32,23
3124,00;32,25
3112,00;32,25
3100,00;32,27
3088,00;32,27
3076,00;32,27
3064,00;32,27
3052,00;32,29
3040,00;32,31
3028,00;32,32
3016,00;32,36
3004,00;32,37
2992,00;32,39
2980,00;32,39
2968,00;32,36
2956,00;32,27
2944,00;32,25
2932,00;32,28
2920,00;32,02
2908,00;31,90
2896,00;32,13
2884,00;32,26
2872,00;32,35
2860,00;32,38
2848,00;32,34
2836,00;32,42
2824,00;32,55
2812,00;32,63
2800,00;32,70
2788,00;32,75
2776,00;32,79
2764,00;32,82
2752,00;32,87
2740,00;32,91
2728,00;32,94
2716,00;32,97
2704,00;33,01
2692,00;33,04
2680,00;33,07
2668,00;33,10
2656,00;33,15
2644,00;33,23
2632,00;33,31
2620,00;33,37
2608,00;33,42
2596,00;33,47
2584,00;33,50
2572,00;33,52
2560,00;33,56
2548,00;33,58
2536,00;33,60
2524,00;33,60
2512,00;33,62
2500,00;33,62
2488,00;33,64
2476,00;33,64
2464,00;33,65
2452,00;33,66
2440,00;33,67
2428,00;33,69
2416,00;33,70
2404,00;33,70
2392,00;33,69
2380,00;33,78
2368,00;33,71
2356,00;33,66
2344,00;33,79
2332,00;33,53
2320,00;33,52
2308,00;33,67
2296,00;33,74
2284,00;33,77
2272,00;33,86
2260,00;33,86
2248,00;33,89
2236,00;33,89
2224,00;33,91
2212,00;33,93
2200,00;33,96
2188,00;33,95
2176,00;34,00
2164,00;33,99
2152,00;34,09
2140,00;34,06
2128,00;34,04
2116,00;34,01
2104,00;34,03
2092,00;34,07
2080,00;34,09
2068,00;34,14
2056,00;34,18
2044,00;34,23
2032,00;34,30
2020,00;34,35
2008,00;34,35
1996,00;34,36
1984,00;34,37
1972,00;34,51
1960,00;34,53
1948,00;34,52
1936,00;34,53
1924,00;34,54
1912,00;34,58
1900,00;34,60
1888,00;34,63
1876,00;34,68
1864,00;34,68
1852,00;34,76
1840,00;34,77
1828,00;34,80
1816,00;34,84
1804,00;34,86
1792,00;34,86
1780,00;34,86
1768,00;34,81
1756,00;34,78
1744,00;34,63
1732,00;34,55
1720,00;34,31
1708,00;34,08
1696,00;33,75
1684,00;33,55
1672,00;33,31
1660,00;33,13
1648,00;32,89
1636,00;32,75
1624,00;32,69
1612,00;32,78
1600,00;33,01
1588,00;33,26
1576,00;33,46
1564,00;33,64
1552,00;33,83
1540,00;33,91
1528,00;34,14
1516,00;34,21
1504,00;34,36
1492,00;34,44
1480,00;34,40
1468,00;34,11
1456,00;33,73
1444,00;33,66
1432,00;33,62
1420,00;33,69
1408,00;33,85
1396,00;33,98
1384,00;34,05
1372,00;34,01
1360,00;34,07
1348,00;34,23
1336,00;34,40
1324,00;34,55
1312,00;34,60
1300,00;34,66
1288,00;34,65
1276,00;34,47
1264,00;33,91
1252,00;33,41
1240,00;32,63
1228,00;31,82
1216,00;31,16
1204,00;30,66
1192,00;30,30
1180,00;30,03
1168,00;29,67
1156,00;29,23
1144,00;28,70
1132,00;28,26
1120,00;27,96
1108,00;28,02
1096,00;28,26
1084,00;28,45
1072,00;28,56
1060,00;28,69
1048,00;28,88
1036,00;29,49
1024,00;30,31
1012,00;30,77
1000,00;30,91
988,00;30,88
976,00;30,58
964,00;30,50
952,00;30,41
940,00;30,46
928,00;30,91
916,00;31,17
904,00;31,26
892,00;31,37
880,00;31,38
868,00;31,51
856,00;31,76
844,00;31,89
832,00;31,86
820,00;31,48
808,00;30,81
796,00;29,90
784,00;28,62
772,00;27,19
760,00;25,86
748,00;24,74
736,00;23,82
724,00;22,92
712,00;22,12
700,00;21,36
688,00;20,63
676,00;19,71
664,00;18,64
652,00;17,63
640,00;16,52
628,00;15,57
616,00;14,84
604,00;14,33
592,00;13,82
580,00;13,49
568,00;13,13
556,00;13,05
544,00;12,88
532,00;12,61
520,00;11,95
508,00;10,90
500,00;11,16

File: MoS2(1)-15H.csv
Criado como novo conjunto de dados;Amostra 009 por Analyst data segunda-feira, outubro 28 2024
cm-1;%T
4000,00;38,72
3988,00;38,73
3976,00;38,74
3964,00;38,76
3952,00;38,76
3940,00;38,72
3928,00;38,73
3916,00;38,73
3904,00;38,77
3892,00;38,76
3880,00;38,67
3868,00;38,80
3856,00;38,79
3844,00;38,90
3832,00;38,81
3820,00;38,90
3808,00;39,01
3796,00;38,89
3784,00;39,09
3772,00;39,15
3760,00;39,14
3748,00;39,12
3736,00;39,15
3724,00;39,32
3712,00;39,28
3700,00;39,37
3688,00;39,28
3676,00;39,26
3664,00;39,26
3652,00;39,21
3640,00;39,11
3628,00;38,95
3616,00;38,77
3604,00;38,62
3592,00;38,43
3580,00;38,26
3568,00;38,11
3556,00;37,93
3544,00;37,70
3532,00;37,63
3520,00;37,43
3508,00;37,33
3496,00;37,22
3484,00;37,11
3472,00;37,00
3460,00;36,89
3448,00;36,81
3436,00;36,71
3424,00;36,63
3412,00;36,56
3400,00;36,50
3388,00;36,43
3376,00;36,39
3364,00;36,34
3352,00;36,32
3340,00;36,30
3328,00;36,28
3316,00;36,25
3304,00;36,23
3292,00;36,22
3280,00;36,17
3268,00;36,15
3256,00;36,14
3244,00;36,11
3232,00;36,10
3220,00;36,09
3208,00;36,08
3196,00;36,09
3184,00;36,11
3172,00;36,14
3160,00;36,17
3148,00;36,21
3136,00;36,24
3124,00;36,27
3112,00;36,30
3100,00;36,33
3088,00;36,35
3076,00;36,36
3064,00;36,38
3052,00;36,42
3040,00;36,45
3028,00;36,47
3016,00;36,55
3004,00;36,56
2992,00;36,60
2980,00;36,60
2968,00;36,57
2956,00;36,50
2944,00;36,52
2932,00;36,54
2920,00;36,31
2908,00;36,19
2896,00;36,45
2884,00;36,61
2872,00;36,72
2860,00;36,76
2848,00;36,73
2836,00;36,85
2824,00;37,00
2812,00;37,10
2800,00;37,17
2788,00;37,24
2776,00;37,30
2764,00;37,35
2752,00;37,40
2740,00;37,45
2728,00;37,51
2716,00;37,55
2704,00;37,59
2692,00;37,64
2680,00;37,69
2668,00;37,72
2656,00;37,79
2644,00;37,91
2632,00;38,02
2620,00;38,11
2608,00;38,18
2596,00;38,24
2584,00;38,30
2572,00;38,34
2560,00;38,39
2548,00;38,42
2536,00;38,46
2524,00;38,48
2512,00;38,50
2500,00;38,52
2488,00;38,55
2476,00;38,56
2464,00;38,58
2452,00;38,58
2440,00;38,62
2428,00;38,63
2416,00;38,65
2404,00;38,67
2392,00;38,66
2380,00;38,76
2368,00;38,80
2356,00;38,85
2344,00;39,48
2332,00;38,45
2320,00;38,48
2308,00;38,64
2296,00;38,67
2284,00;38,78
2272,00;38,96
2260,00;38,97
2248,00;38,98
2236,00;39,02
2224,00;39,06
2212,00;39,07
2200,00;39,09
2188,00;39,11
2176,00;39,14
2164,00;39,14
2152,00;39,25
2140,00;39,25
2128,00;39,25
2116,00;39,20
2104,00;39,23
2092,00;39,31
2080,00;39,33
2068,00;39,39
2056,00;39,44
2044,00;39,53
2032,00;39,60
2020,00;39,62
2008,00;39,68
1996,00;39,67
1984,00;39,69
1972,00;39,83
1960,00;39,86
1948,00;39,84
1936,00;39,84
1924,00;39,88
1912,00;39,91
1900,00;39,93
1888,00;39,96
1876,00;40,01
1864,00;40,02
1852,00;40,10
1840,00;40,10
1828,00;40,12
1816,00;40,16
1804,00;40,17
1792,00;40,17
1780,00;40,17
1768,00;40,11
1756,00;40,09
1744,00;39,92
1732,00;39,83
1720,00;39,54
1708,00;39,27
1696,00;38,90
1684,00;38,66
1672,00;38,35
1660,00;38,12
1648,00;37,89
1636,00;37,74
1624,00;37,68
1612,00;37,80
1600,00;38,06
1588,00;38,34
1576,00;38,58
1564,00;38,77
1552,00;39,00
1540,00;39,09
1528,00;39,34
1516,00;39,43
1504,00;39,61
1492,00;39,66
1480,00;39,63
1468,00;39,33
1456,00;38,93
1444,00;38,85
1432,00;38,84
1420,00;38,91
1408,00;39,06
1396,00;39,19
1384,00;39,24
1372,00;39,19
1360,00;39,25
1348,00;39,40
1336,00;39,59
1324,00;39,75
1312,00;39,77
1300,00;39,85
1288,00;39,84
1276,00;39,67
1264,00;39,11
1252,00;38,61
1240,00;37,83
1228,00;37,00
1216,00;36,37
1204,00;35,89
1192,00;35,58
1180,00;35,37
1168,00;35,07
1156,00;34,63
1144,00;34,10
1132,00;33,63
1120,00;33,38
1108,00;33,48
1096,00;33,77
1084,00;33,97
1072,00;34,07
1060,00;34,15
1048,00;34,26
1036,00;34,82
1024,00;35,68
1012,00;36,13
1000,00;36,26
988,00;36,37
976,00;36,28
964,00;36,14
952,00;35,86
940,00;35,68
928,00;36,00
916,00;36,27
904,00;36,27
892,00;36,37
880,00;36,41
868,00;36,58
856,00;36,82
844,00;36,99
832,00;37,00
820,00;36,68
808,00;36,07
796,00;35,21
784,00;33,92
772,00;32,50
760,00;31,17
748,00;30,05
736,00;29,12
724,00;28,23
712,00;27,42
700,00;26,65
688,00;26,05
676,00;25,21
664,00;24,05
652,00;23,28
640,00;22,20
628,00;21,36
616,00;20,78
604,00;20,36
592,00;19,95
580,00;19,63
568,00;19,16
556,00;18,80
544,00;18,80
532,00;18,19
520,00;17,99
508,00;17,45
500,00;14,71